"Time (s)","Gyroscope x (rad/s)","Gyroscope y (rad/s)","Gyroscope z (rad/s)"
1.256878740E-1,-1.374999993E-4,5.499999970E-4,5.376249924E-2
1.281882610E-1,2.062499989E-3,1.649999991E-3,5.376249924E-2
1.306887970E-1,-1.374999993E-4,5.499999970E-4,5.376249924E-2
1.331891070E-1,9.624999948E-4,5.499999970E-4,5.376249924E-2
1.356897150E-1,9.624999948E-4,2.612499986E-3,5.266249925E-2
1.381900250E-1,9.624999948E-4,5.499999970E-4,5.376249924E-2
1.406904100E-1,-1.374999993E-4,5.499999970E-4,5.156249925E-2
1.431909460E-1,9.624999948E-4,-5.499999970E-4,5.266249925E-2
1.456913050E-1,9.624999948E-4,5.499999970E-4,5.266249925E-2
1.481918410E-1,-1.374999993E-4,-5.499999970E-4,5.059999973E-2
1.506922280E-1,-1.374999993E-4,5.499999970E-4,4.839999974E-2
1.531927640E-1,9.624999948E-4,5.499999970E-4,4.633750021E-2
1.556931510E-1,9.624999948E-4,5.499999970E-4,4.523750022E-2
1.581937110E-1,-1.374999993E-4,-1.649999991E-3,4.207500070E-2
1.606940980E-1,9.624999948E-4,5.499999970E-4,4.097500071E-2
1.631946340E-1,2.062499989E-3,5.499999970E-4,3.671250120E-2
1.656950210E-1,9.624999948E-4,-5.499999970E-4,3.464999795E-2
1.681953480E-1,9.624999948E-4,-5.499999970E-4,3.135000169E-2
1.706958840E-1,-1.374999993E-4,1.649999991E-3,2.928750031E-2
1.731962710E-1,-2.199999988E-3,-5.499999970E-4,2.818750031E-2
1.756968070E-1,-1.374999993E-4,5.499999970E-4,2.392499894E-2
1.781972030E-1,-1.374999993E-4,-5.499999970E-4,2.076249942E-2
1.806977390E-1,-1.374999993E-4,5.499999970E-4,1.869999990E-2
1.831981260E-1,9.624999948E-4,5.499999970E-4,1.539999992E-2
1.856986620E-1,9.624999948E-4,5.499999970E-4,1.333750039E-2
1.881990400E-1,9.624999948E-4,-1.649999991E-3,1.223750040E-2
1.906995760E-1,-1.374999993E-4,-1.649999991E-3,1.017499994E-2
1.931999630E-1,9.624999948E-4,5.499999970E-4,6.874999963E-3
1.957005000E-1,-1.099999994E-3,1.649999991E-3,4.812499974E-3
1.982008760E-1,-1.374999993E-4,5.499999970E-4,1.649999991E-3
2.007014130E-1,-1.374999993E-4,-5.499999970E-4,-1.649999991E-3
2.032017990E-1,2.062499989E-3,5.499999970E-4,-2.612499986E-3
2.057021070E-1,9.624999948E-4,-5.499999970E-4,-3.712499980E-3
2.082026280E-1,-1.374999993E-4,1.649999991E-3,-5.774999969E-3
2.107030150E-1,-1.099999994E-3,-5.499999970E-4,-1.003750041E-2
2.132035520E-1,-1.374999993E-4,5.499999970E-4,-1.003750041E-2
2.157039380E-1,9.624999948E-4,-5.499999970E-4,-1.113750041E-2
2.182044610E-1,-1.374999993E-4,1.649999991E-3,-1.333750039E-2
2.207048470E-1,9.624999948E-4,1.649999991E-3,-1.429999992E-2
2.232053840E-1,-1.374999993E-4,1.649999991E-3,-1.539999992E-2
2.257057700E-1,-1.374999993E-4,1.649999991E-3,-1.649999991E-2
2.282060780E-1,-1.374999993E-4,-5.499999970E-4,-1.856249943E-2
2.307066090E-1,-1.099999994E-3,5.499999970E-4,-1.759999990E-2
2.332069960E-1,-1.374999993E-4,-5.499999970E-4,-1.539999992E-2
2.357075330E-1,-1.099999994E-3,5.499999970E-4,-1.759999990E-2
2.382079190E-1,-1.374999993E-4,1.649999991E-3,-1.759999990E-2
2.407084560E-1,-1.374999993E-4,5.499999970E-4,-2.076249942E-2
2.432088420E-1,9.624999948E-4,5.499999970E-4,-1.759999990E-2
2.457093790E-1,-1.374999993E-4,-1.649999991E-3,-1.856249943E-2
2.482097650E-1,9.624999948E-4,5.499999970E-4,-1.966249943E-2
2.507102920E-1,-1.374999993E-4,5.499999970E-4,-1.966249943E-2
2.532106780E-1,-1.099999994E-3,5.499999970E-4,-2.186249942E-2
2.557112150E-1,-1.374999993E-4,-1.649999991E-3,-1.966249943E-2
2.582116020E-1,9.624999948E-4,1.649999991E-3,-2.186249942E-2
2.607121380E-1,9.624999948E-4,-5.499999970E-4,-2.186249942E-2
2.632125300E-1,9.624999948E-4,5.499999970E-4,-2.186249942E-2
2.657130660E-1,-1.099999994E-3,5.499999970E-4,-1.966249943E-2
2.682133760E-1,-2.199999988E-3,-1.649999991E-3,-2.076249942E-2
2.707137580E-1,9.624999948E-4,1.649999991E-3,-1.966249943E-2
2.732142920E-1,9.624999948E-4,-1.649999991E-3,-1.966249943E-2
2.757146790E-1,9.624999948E-4,1.649999991E-3,-1.966249943E-2
2.782152150E-1,-1.099999994E-3,5.499999970E-4,-1.856249943E-2
2.807156020E-1,-1.374999993E-4,5.499999970E-4,-1.649999991E-2
2.832161380E-1,9.624999948E-4,5.499999970E-4,-1.759999990E-2
2.857165250E-1,-1.374999993E-4,-2.612499986E-3,-1.649999991E-2
2.882168320E-1,2.062499989E-3,5.499999970E-4,-1.539999992E-2
2.907173690E-1,-1.374999993E-4,1.649999991E-3,-1.429999992E-2
2.932177550E-1,-1.374999993E-4,5.499999970E-4,-1.333750039E-2
2.957183070E-1,-1.099999994E-3,5.499999970E-4,-1.333750039E-2
2.982186940E-1,-1.374999993E-4,1.649999991E-3,-1.223750040E-2
3.007192300E-1,-1.374999993E-4,5.499999970E-4,-1.113750041E-2
3.032196170E-1,-1.374999993E-4,-5.499999970E-4,-1.113750041E-2
3.057201670E-1,-1.374999993E-4,5.499999970E-4,-9.074999951E-3
3.082205540E-1,-1.374999993E-4,-5.499999970E-4,-5.774999969E-3
3.107208610E-1,2.062499989E-3,5.499999970E-4,-4.812499974E-3
3.132214750E-1,9.624999948E-4,1.649999991E-3,-5.774999969E-3
3.157218000E-1,-1.374999993E-4,5.499999970E-4,-4.812499974E-3
3.182224130E-1,-1.374999993E-4,5.499999970E-4,-3.712499980E-3
3.207229510E-1,-1.374999993E-4,-5.499999970E-4,-1.649999991E-3
3.232233380E-1,9.624999948E-4,-5.499999970E-4,1.649999991E-3
3.257238400E-1,-1.374999993E-4,1.649999991E-3,-5.499999970E-4
3.282241500E-1,-1.374999993E-4,5.499999970E-4,1.649999991E-3
3.307245330E-1,9.624999948E-4,-1.649999991E-3,2.612499986E-3
3.332250710E-1,-1.374999993E-4,1.649999991E-3,3.712499980E-3
3.357254290E-1,9.624999948E-4,-5.499999970E-4,4.812499974E-3
3.382259650E-1,9.624999948E-4,-5.499999970E-4,5.912499968E-3
3.407263520E-1,9.624999948E-4,5.499999970E-4,5.912499968E-3
3.432268880E-1,-1.374999993E-4,5.499999970E-4,6.874999963E-3
3.457272750E-1,-1.374999993E-4,-5.499999970E-4,5.912499968E-3
3.482275830E-1,-1.374999993E-4,5.499999970E-4,6.874999963E-3
3.507281190E-1,-1.374999993E-4,-5.499999970E-4,4.812499974E-3
3.532285060E-1,9.624999948E-4,-5.499999970E-4,6.874999963E-3
3.557290420E-1,9.624999948E-4,1.649999991E-3,7.974999957E-3
3.582294380E-1,-1.099999994E-3,5.499999970E-4,7.974999957E-3
3.607299740E-1,-1.374999993E-4,5.499999970E-4,7.974999957E-3
3.632303610E-1,-1.374999993E-4,-5.499999970E-4,9.074999951E-3
3.657308980E-1,9.624999948E-4,5.499999970E-4,7.974999957E-3
3.682312800E-1,-1.374999993E-4,2.612499986E-3,7.974999957E-3
3.707318170E-1,-1.374999993E-4,5.499999970E-4,9.074999951E-3
3.732321260E-1,-1.374999993E-4,-5.499999970E-4,5.912499968E-3
3.757327400E-1,9.624999948E-4,-1.649999991E-3,6.874999963E-3
3.782330580E-1,2.062499989E-3,1.649999991E-3,5.912499968E-3
3.807336720E-1,-1.374999993E-4,5.499999970E-4,4.812499974E-3
3.832339810E-1,-1.374999993E-4,5.499999970E-4,4.812499974E-3
3.857345950E-1,-1.099999994E-3,5.499999970E-4,3.712499980E-3
3.882349100E-1,2.062499989E-3,-5.499999970E-4,2.612499986E-3
3.907352940E-1,9.624999948E-4,5.499999970E-4,1.649999991E-3
3.932358310E-1,2.062499989E-3,-1.649999991E-3,5.499999970E-4
3.957362170E-1,-1.374999993E-4,5.499999970E-4,-5.499999970E-4
3.982367540E-1,-1.374999993E-4,-5.499999970E-4,-2.612499986E-3
4.007371350E-1,-1.374999993E-4,5.499999970E-4,-3.712499980E-3
4.032376720E-1,9.624999948E-4,-5.499999970E-4,-3.712499980E-3
4.057380580E-1,-1.374999993E-4,5.499999970E-4,-2.612499986E-3
4.082385950E-1,9.624999948E-4,-5.499999970E-4,-3.712499980E-3
4.107388910E-1,9.624999948E-4,5.499999970E-4,-4.812499974E-3
4.132392730E-1,-1.374999993E-4,-5.499999970E-4,-4.812499974E-3
4.157398120E-1,9.624999948E-4,5.499999970E-4,-5.774999969E-3
4.182401980E-1,9.624999948E-4,-5.499999970E-4,-3.712499980E-3
4.207407300E-1,9.624999948E-4,-5.499999970E-4,-5.774999969E-3
4.232411160E-1,9.624999948E-4,1.649999991E-3,-5.774999969E-3
4.257416530E-1,9.624999948E-4,-5.499999970E-4,-4.812499974E-3
4.282420390E-1,9.624999948E-4,2.612499986E-3,-5.774999969E-3
4.307425760E-1,-1.374999993E-4,5.499999970E-4,-4.812499974E-3
4.332429630E-1,9.624999948E-4,5.499999970E-4,-4.812499974E-3
4.357432700E-1,-1.374999993E-4,5.499999970E-4,-3.712499980E-3
4.382438840E-1,-1.099999994E-3,-1.649999991E-3,-5.774999969E-3
4.407441930E-1,9.624999948E-4,5.499999970E-4,-3.712499980E-3
4.432448070E-1,-1.374999993E-4,5.499999970E-4,-3.712499980E-3
4.457451060E-1,-1.374999993E-4,5.499999970E-4,-2.612499986E-3
4.482457200E-1,9.624999948E-4,-1.649999991E-3,-2.612499986E-3
4.507460300E-1,9.624999948E-4,5.499999970E-4,-1.649999991E-3
4.532465660E-1,-1.374999993E-4,5.499999970E-4,-5.499999970E-4
4.557469530E-1,-1.374999993E-4,-5.499999970E-4,3.712499980E-3
4.582474890E-1,9.624999948E-4,-5.499999970E-4,2.612499986E-3
4.607478760E-1,9.624999948E-4,5.499999970E-4,2.612499986E-3
4.632484120E-1,-1.374999993E-4,5.499999970E-4,3.712499980E-3
4.657487650E-1,9.624999948E-4,5.499999970E-4,5.912499968E-3
4.682493010E-1,-1.374999993E-4,5.499999970E-4,5.912499968E-3
4.707496110E-1,9.624999948E-4,-5.499999970E-4,5.912499968E-3
4.732499940E-1,-1.374999993E-4,-5.499999970E-4,7.974999957E-3
4.757505130E-1,-1.374999993E-4,-1.649999991E-3,6.874999963E-3
4.782509000E-1,-1.374999993E-4,-5.499999970E-4,7.974999957E-3
4.807514360E-1,-1.374999993E-4,5.499999970E-4,9.074999951E-3
4.832518230E-1,9.624999948E-4,-5.499999970E-4,9.074999951E-3
4.857523450E-1,-1.374999993E-4,5.499999970E-4,7.974999957E-3
4.882527320E-1,2.062499989E-3,-5.499999970E-4,1.017499994E-2
4.907532680E-1,-1.374999993E-4,5.499999970E-4,1.113750041E-2
4.932536550E-1,-1.374999993E-4,-1.649999991E-3,1.113750041E-2
4.957541910E-1,-1.099999994E-3,1.649999991E-3,1.017499994E-2
4.982545830E-1,-1.374999993E-4,-5.499999970E-4,9.074999951E-3
5.007551200E-1,-1.374999993E-4,5.499999970E-4,1.017499994E-2
5.032555060E-1,9.624999948E-4,-5.499999970E-4,1.223750040E-2
5.057560430E-1,9.624999948E-4,-5.499999970E-4,1.223750040E-2
5.082564380E-1,-1.374999993E-4,-5.499999970E-4,1.443750039E-2
5.107567460E-1,-1.374999993E-4,-5.499999970E-4,1.223750040E-2
5.132572820E-1,9.624999948E-4,5.499999970E-4,1.223750040E-2
5.157576690E-1,-1.374999993E-4,-5.499999970E-4,1.113750041E-2
5.182582050E-1,-1.374999993E-4,1.649999991E-3,1.113750041E-2
5.207585920E-1,2.062499989E-3,-5.499999970E-4,1.333750039E-2
5.232591290E-1,9.624999948E-4,1.649999991E-3,1.113750041E-2
5.257595150E-1,-1.374999993E-4,-1.649999991E-3,1.333750039E-2
5.282600520E-1,-1.374999993E-4,5.499999970E-4,1.017499994E-2
5.307603510E-1,-1.374999993E-4,-5.499999970E-4,1.017499994E-2
5.332607340E-1,-1.374999993E-4,-5.499999970E-4,1.113750041E-2
5.357612720E-1,9.624999948E-4,5.499999970E-4,1.017499994E-2
5.382616590E-1,9.624999948E-4,5.499999970E-4,9.074999951E-3
5.407622010E-1,-1.374999993E-4,1.649999991E-3,1.017499994E-2
5.432625870E-1,-1.374999993E-4,-1.649999991E-3,7.974999957E-3
5.457631240E-1,9.624999948E-4,5.499999970E-4,6.874999963E-3
5.482635100E-1,-1.099999994E-3,-5.499999970E-4,5.912499968E-3
5.507640620E-1,9.624999948E-4,5.499999970E-4,5.912499968E-3
5.532644480E-1,-1.374999993E-4,-5.499999970E-4,2.612499986E-3
5.557649850E-1,9.624999948E-4,-5.499999970E-4,1.649999991E-3
5.582653710E-1,9.624999948E-4,-5.499999970E-4,1.649999991E-3
5.607659080E-1,-1.374999993E-4,-5.499999970E-4,1.649999991E-3
5.632663040E-1,9.624999948E-4,-5.499999970E-4,5.499999970E-4
5.657668400E-1,9.624999948E-4,-5.499999970E-4,-2.612499986E-3
5.682672270E-1,-1.099999994E-3,1.649999991E-3,-1.649999991E-3
5.707677630E-1,-1.374999993E-4,-5.499999970E-4,-3.712499980E-3
5.732680730E-1,9.624999948E-4,-5.499999970E-4,-4.812499974E-3
5.757684550E-1,9.624999948E-4,-1.649999991E-3,-6.874999963E-3
5.782689940E-1,9.624999948E-4,5.499999970E-4,-7.974999957E-3
5.807693800E-1,9.624999948E-4,1.649999991E-3,-9.074999951E-3
5.832699120E-1,-1.099999994E-3,-5.499999970E-4,-9.074999951E-3
5.857702990E-1,-1.374999993E-4,5.499999970E-4,-1.223750040E-2
5.882708350E-1,-1.374999993E-4,-5.499999970E-4,-1.113750041E-2
5.907712220E-1,9.624999948E-4,-5.499999970E-4,-1.113750041E-2
5.932715290E-1,9.624999948E-4,-1.649999991E-3,-1.223750040E-2
5.957720810E-1,2.062499989E-3,5.499999970E-4,-1.223750040E-2
5.982724670E-1,-1.099999994E-3,-5.499999970E-4,-1.539999992E-2
6.007730040E-1,-1.374999993E-4,-5.499999970E-4,-1.429999992E-2
6.032733910E-1,-1.374999993E-4,-5.499999970E-4,-1.429999992E-2
6.057739170E-1,9.624999948E-4,5.499999970E-4,-1.429999992E-2
6.082743040E-1,9.624999948E-4,-5.499999970E-4,-1.649999991E-2
6.107748400E-1,9.624999948E-4,5.499999970E-4,-1.333750039E-2
6.132752270E-1,-1.099999994E-3,-5.499999970E-4,-1.539999992E-2
6.157757580E-1,9.624999948E-4,1.649999991E-3,-1.649999991E-2
6.182761450E-1,9.624999948E-4,5.499999970E-4,-1.759999990E-2
6.207766810E-1,-1.374999993E-4,-5.499999970E-4,-1.759999990E-2
6.232769910E-1,-1.374999993E-4,5.499999970E-4,-1.759999990E-2
6.257775950E-1,-1.374999993E-4,-5.499999970E-4,-1.759999990E-2
6.282779820E-1,9.624999948E-4,-5.499999970E-4,-1.966249943E-2
6.307785180E-1,9.624999948E-4,5.499999970E-4,-1.759999990E-2
6.332789050E-1,-1.099999994E-3,-5.499999970E-4,-1.856249943E-2
6.357792030E-1,9.624999948E-4,5.499999970E-4,-2.076249942E-2
6.382797390E-1,9.624999948E-4,5.499999970E-4,-2.076249942E-2
6.407801260E-1,-1.099999994E-3,-5.499999970E-4,-2.076249942E-2
6.432806620E-1,-1.099999994E-3,2.612499986E-3,-2.076249942E-2
6.457810390E-1,9.624999948E-4,1.649999991E-3,-2.076249942E-2
6.482815750E-1,-1.374999993E-4,-1.649999991E-3,-1.966249943E-2
6.507819620E-1,9.624999948E-4,5.499999970E-4,-2.076249942E-2
6.532822700E-1,-1.099999994E-3,-5.499999970E-4,-2.186249942E-2
6.557828060E-1,9.624999948E-4,1.649999991E-3,-2.282499894E-2
6.582831740E-1,-1.374999993E-4,1.649999991E-3,-2.076249942E-2
6.607837100E-1,-1.374999993E-4,1.649999991E-3,-2.282499894E-2
6.632840970E-1,-1.374999993E-4,5.499999970E-4,-2.186249942E-2
6.657846330E-1,9.624999948E-4,5.499999970E-4,-2.186249942E-2
6.682850250E-1,-1.374999993E-4,-5.499999970E-4,-2.186249942E-2
6.707855610E-1,-2.199999988E-3,-5.499999970E-4,-2.076249942E-2
6.732859480E-1,-1.099999994E-3,5.499999970E-4,-2.186249942E-2
6.757864850E-1,-1.374999993E-4,-5.499999970E-4,-2.076249942E-2
6.782868570E-1,-1.374999993E-4,-5.499999970E-4,-2.076249942E-2
6.807873940E-1,-1.099999994E-3,1.649999991E-3,-2.076249942E-2
6.832877800E-1,9.624999948E-4,-1.649999991E-3,-2.076249942E-2
6.857880880E-1,-1.099999994E-3,5.499999970E-4,-1.966249943E-2
6.882886810E-1,9.624999948E-4,5.499999970E-4,-1.966249943E-2
6.907889910E-1,9.624999948E-4,-5.499999970E-4,-1.856249943E-2
6.932895280E-1,-1.374999993E-4,1.649999991E-3,-1.759999990E-2
6.957899140E-1,-1.099999994E-3,5.499999970E-4,-1.649999991E-2
6.982904510E-1,2.062499989E-3,2.612499986E-3,-1.539999992E-2
7.007908660E-1,-1.374999993E-4,-5.499999970E-4,-1.333750039E-2
7.032914030E-1,-1.374999993E-4,5.499999970E-4,-1.333750039E-2
7.057917890E-1,9.624999948E-4,-5.499999970E-4,-1.113750041E-2
7.082923260E-1,9.624999948E-4,5.499999970E-4,-1.003750041E-2
7.107927020E-1,-1.099999994E-3,-5.499999970E-4,-1.003750041E-2
7.132930100E-1,9.624999948E-4,5.499999970E-4,-9.074999951E-3
7.157935470E-1,-1.374999993E-4,5.499999970E-4,-6.874999963E-3
7.182939330E-1,-2.199999988E-3,5.499999970E-4,-6.874999963E-3
7.207944560E-1,9.624999948E-4,1.649999991E-3,-4.812499974E-3
7.232948420E-1,9.624999948E-4,-1.649999991E-3,-5.774999969E-3
7.257953790E-1,-1.374999993E-4,-5.499999970E-4,-2.612499986E-3
7.282957650E-1,-1.099999994E-3,5.499999970E-4,-3.712499980E-3
7.307962920E-1,-1.374999993E-4,1.649999991E-3,-3.712499980E-3
7.332966780E-1,-1.374999993E-4,1.649999991E-3,-4.812499974E-3
7.357972150E-1,-1.374999993E-4,5.499999970E-4,-2.612499986E-3
7.382976020E-1,-1.374999993E-4,5.499999970E-4,-5.499999970E-4
7.407981290E-1,-1.374999993E-4,-5.499999970E-4,-2.612499986E-3
7.432985160E-1,9.624999948E-4,1.649999991E-3,-1.649999991E-3
7.457990520E-1,-1.099999994E-3,-5.499999970E-4,-1.649999991E-3
7.482993620E-1,2.062499989E-3,5.499999970E-4,-2.612499986E-3
7.507999940E-1,2.062499989E-3,-1.649999991E-3,-5.499999970E-4
7.533003040E-1,2.062499989E-3,-1.649999991E-3,-5.499999970E-4
7.558009170E-1,-1.099999994E-3,5.499999970E-4,5.499999970E-4
7.583012270E-1,-1.374999993E-4,-5.499999970E-4,-5.499999970E-4
7.608016020E-1,9.624999948E-4,5.499999970E-4,5.499999970E-4
7.633021380E-1,-1.374999993E-4,-5.499999970E-4,5.499999970E-4
7.658025250E-1,-1.374999993E-4,5.499999970E-4,-5.499999970E-4
7.683030610E-1,9.624999948E-4,5.499999970E-4,5.499999970E-4
7.708034480E-1,9.624999948E-4,5.499999970E-4,2.612499986E-3
7.733039990E-1,-1.099999994E-3,5.499999970E-4,2.612499986E-3
7.758043860E-1,9.624999948E-4,-5.499999970E-4,2.612499986E-3
7.783046940E-1,-1.374999993E-4,-5.499999970E-4,3.712499980E-3
7.808052300E-1,3.162499983E-3,5.499999970E-4,3.712499980E-3
7.833056310E-1,9.624999948E-4,5.499999970E-4,3.712499980E-3
7.858061670E-1,9.624999948E-4,-5.499999970E-4,5.912499968E-3
7.883065540E-1,-1.374999993E-4,5.499999970E-4,4.812499974E-3
7.908070900E-1,-1.099999994E-3,5.499999970E-4,7.974999957E-3
7.933074680E-1,2.062499989E-3,5.499999970E-4,6.874999963E-3
7.958080040E-1,9.624999948E-4,5.499999970E-4,7.974999957E-3
7.983083910E-1,-1.374999993E-4,5.499999970E-4,1.017499994E-2
8.008089270E-1,9.624999948E-4,-5.499999970E-4,1.017499994E-2
8.033093420E-1,-1.374999993E-4,5.499999970E-4,1.017499994E-2
8.058098780E-1,-1.099999994E-3,-5.499999970E-4,1.113750041E-2
8.083102650E-1,-1.099999994E-3,-5.499999970E-4,1.113750041E-2
8.108108020E-1,-1.374999993E-4,1.649999991E-3,1.113750041E-2
8.133111880E-1,9.624999948E-4,-5.499999970E-4,1.333750039E-2
8.158117540E-1,-1.374999993E-4,-5.499999970E-4,1.113750041E-2
8.183120630E-1,-1.374999993E-4,-5.499999970E-4,1.223750040E-2
8.208124460E-1,9.624999948E-4,-5.499999970E-4,1.113750041E-2
8.233129840E-1,-1.374999993E-4,1.649999991E-3,1.223750040E-2
8.258134000E-1,9.624999948E-4,-2.612499986E-3,1.223750040E-2
8.283139370E-1,-1.374999993E-4,5.499999970E-4,1.223750040E-2
8.308143230E-1,9.624999948E-4,-5.499999970E-4,1.017499994E-2
8.333148600E-1,-1.374999993E-4,5.499999970E-4,1.113750041E-2
8.358152320E-1,9.624999948E-4,5.499999970E-4,1.017499994E-2
8.383155400E-1,9.624999948E-4,1.649999991E-3,1.017499994E-2
8.408160760E-1,9.624999948E-4,-5.499999970E-4,9.074999951E-3
8.433164630E-1,-1.374999993E-4,5.499999970E-4,5.912499968E-3
8.458170180E-1,-1.374999993E-4,1.649999991E-3,6.874999963E-3
8.483174050E-1,-1.374999993E-4,-5.499999970E-4,4.812499974E-3
8.508179420E-1,-1.374999993E-4,-5.499999970E-4,5.912499968E-3
8.533183280E-1,9.624999948E-4,-1.649999991E-3,3.712499980E-3
8.558188650E-1,-1.374999993E-4,5.499999970E-4,2.612499986E-3
8.583192510E-1,9.624999948E-4,5.499999970E-4,2.612499986E-3
8.608197880E-1,-1.374999993E-4,5.499999970E-4,1.649999991E-3
8.633201740E-1,-1.374999993E-4,-5.499999970E-4,5.499999970E-4
8.658207110E-1,-1.374999993E-4,-5.499999970E-4,5.499999970E-4
8.683210730E-1,-1.374999993E-4,-1.649999991E-3,5.499999970E-4
8.708216100E-1,-1.099999994E-3,-5.499999970E-4,-5.499999970E-4
8.733219970E-1,2.062499989E-3,1.649999991E-3,-2.612499986E-3
8.758225330E-1,-1.374999993E-4,-5.499999970E-4,-2.612499986E-3
8.783229150E-1,9.624999948E-4,1.649999991E-3,-1.649999991E-3
8.808232220E-1,-1.374999993E-4,-5.499999970E-4,-3.712499980E-3
8.833237590E-1,9.624999948E-4,-1.649999991E-3,-4.812499974E-3
8.858241450E-1,9.624999948E-4,5.499999970E-4,-2.612499986E-3
8.883246820E-1,9.624999948E-4,5.499999970E-4,-3.712499980E-3
8.908250690E-1,2.062499989E-3,5.499999970E-4,-3.712499980E-3
8.933256050E-1,9.624999948E-4,5.499999970E-4,-3.712499980E-3
8.958259920E-1,-1.099999994E-3,-5.499999970E-4,-2.612499986E-3
8.983265280E-1,-1.374999993E-4,-5.499999970E-4,-1.649999991E-3
9.008268330E-1,2.062499989E-3,1.649999991E-3,-1.649999991E-3
9.033272150E-1,9.624999948E-4,5.499999970E-4,-2.612499986E-3
9.058277540E-1,9.624999948E-4,-5.499999970E-4,-5.499999970E-4
9.083281400E-1,-1.099999994E-3,5.499999970E-4,-2.612499986E-3
9.108286770E-1,-1.374999993E-4,5.499999970E-4,-5.499999970E-4
9.133290640E-1,-1.374999993E-4,5.499999970E-4,-1.649999991E-3
9.158296000E-1,9.624999948E-4,5.499999970E-4,5.499999970E-4
9.183299870E-1,9.624999948E-4,5.499999970E-4,1.649999991E-3
9.208305230E-1,-1.374999993E-4,1.649999991E-3,-5.499999970E-4
9.233308960E-1,2.062499989E-3,5.499999970E-4,5.499999970E-4
9.258314320E-1,-1.374999993E-4,-5.499999970E-4,-2.612499986E-3
9.283318190E-1,9.624999948E-4,5.499999970E-4,1.649999991E-3
9.308323550E-1,-1.374999993E-4,5.499999970E-4,5.499999970E-4
9.333327370E-1,-1.374999993E-4,-5.499999970E-4,5.499999970E-4
9.358332730E-1,-1.374999993E-4,-5.499999970E-4,-5.499999970E-4
9.383336600E-1,-1.099999994E-3,-5.499999970E-4,-2.612499986E-3
9.408341960E-1,-1.374999993E-4,5.499999970E-4,-5.499999970E-4
9.433344870E-1,3.162499983E-3,-5.499999970E-4,-2.612499986E-3
9.458348700E-1,-1.374999993E-4,5.499999970E-4,-1.649999991E-3
9.483354080E-1,9.624999948E-4,-2.612499986E-3,-3.712499980E-3
9.508357950E-1,2.062499989E-3,-1.649999991E-3,-2.612499986E-3
9.533363310E-1,-1.374999993E-4,-1.649999991E-3,-1.649999991E-3
9.558367420E-1,9.624999948E-4,-1.649999991E-3,-3.712499980E-3
9.583372780E-1,-1.374999993E-4,1.649999991E-3,-2.612499986E-3
9.608375880E-1,-1.374999993E-4,-5.499999970E-4,-3.712499980E-3
9.633379710E-1,9.624999948E-4,5.499999970E-4,5.499999970E-4
9.658385180E-1,9.624999948E-4,5.499999970E-4,-5.499999970E-4
9.683389050E-1,-1.374999993E-4,-5.499999970E-4,5.499999970E-4
9.708394410E-1,9.624999948E-4,-5.499999970E-4,3.712499980E-3
9.733398280E-1,2.062499989E-3,1.649999991E-3,3.712499980E-3
9.758403640E-1,9.624999948E-4,-5.499999970E-4,3.712499980E-3
9.783407320E-1,9.624999948E-4,-5.499999970E-4,6.874999963E-3
9.808412690E-1,9.624999948E-4,1.649999991E-3,6.874999963E-3
9.833416550E-1,2.062499989E-3,5.499999970E-4,9.074999951E-3
9.858421920E-1,2.062499989E-3,5.499999970E-4,9.074999951E-3
9.883425490E-1,9.624999948E-4,-5.499999970E-4,1.017499994E-2
9.908430860E-1,-1.374999993E-4,1.649999991E-3,1.223750040E-2
9.933434720E-1,-1.374999993E-4,5.499999970E-4,1.017499994E-2
9.958440090E-1,-1.099999994E-3,-5.499999970E-4,1.223750040E-2
9.983443860E-1,-1.374999993E-4,5.499999970E-4,1.223750040E-2
1.000844923E0,-1.374999993E-4,5.499999970E-4,1.223750040E-2
1.003345233E0,-1.374999993E-4,5.499999970E-4,1.223750040E-2
1.005845615E0,-1.099999994E-3,5.499999970E-4,1.333750039E-2
1.008346163E0,-1.374999993E-4,5.499999970E-4,1.333750039E-2
1.010846549E0,9.624999948E-4,-5.499999970E-4,1.539999992E-2
1.013347086E0,-1.099999994E-3,-5.499999970E-4,1.443750039E-2
1.015847472E0,-1.374999993E-4,5.499999970E-4,1.443750039E-2
1.018348009E0,9.624999948E-4,5.499999970E-4,1.443750039E-2
1.020848390E0,9.624999948E-4,5.499999970E-4,1.443750039E-2
1.023348698E0,9.624999948E-4,-5.499999970E-4,1.649999991E-2
1.025849235E0,9.624999948E-4,5.499999970E-4,1.649999991E-2
1.028349621E0,-1.374999993E-4,2.612499986E-3,1.539999992E-2
1.030850149E0,-1.374999993E-4,1.649999991E-3,1.223750040E-2
1.033350535E0,-1.374999993E-4,-5.499999970E-4,1.223750040E-2
1.035851072E0,-1.374999993E-4,5.499999970E-4,1.017499994E-2
1.038351458E0,9.624999948E-4,-5.499999970E-4,1.017499994E-2
1.040851995E0,-1.374999993E-4,-5.499999970E-4,7.974999957E-3
1.043352382E0,9.624999948E-4,5.499999970E-4,6.874999963E-3
1.045852918E0,9.624999948E-4,-1.649999991E-3,5.912499968E-3
1.048353305E0,-1.099999994E-3,-5.499999970E-4,7.974999957E-3
1.050853860E0,-1.374999993E-4,5.499999970E-4,5.912499968E-3
1.053354247E0,9.624999948E-4,1.649999991E-3,6.874999963E-3
1.055854783E0,9.624999948E-4,-5.499999970E-4,6.874999963E-3
1.058355170E0,-1.099999994E-3,1.649999991E-3,3.712499980E-3
1.060855691E0,9.624999948E-4,-5.499999970E-4,2.612499986E-3
1.063356001E0,9.624999948E-4,5.499999970E-4,5.499999970E-4
1.065856384E0,9.624999948E-4,1.649999991E-3,-5.499999970E-4
1.068356922E0,-1.374999993E-4,5.499999970E-4,-1.649999991E-3
1.070857309E0,-1.374999993E-4,1.649999991E-3,-3.712499980E-3
1.073357860E0,-1.374999993E-4,-5.499999970E-4,-4.812499974E-3
1.075858247E0,-1.374999993E-4,2.612499986E-3,-4.812499974E-3
1.078358783E0,2.062499989E-3,5.499999970E-4,-6.874999963E-3
1.080859184E0,9.624999948E-4,5.499999970E-4,-9.074999951E-3
1.083359492E0,-1.374999993E-4,5.499999970E-4,-9.074999951E-3
1.085860028E0,-1.374999993E-4,5.499999970E-4,-9.074999951E-3
1.088360415E0,-1.099999994E-3,-5.499999970E-4,-9.074999951E-3
1.090860951E0,9.624999948E-4,-5.499999970E-4,-1.223750040E-2
1.093361338E0,9.624999948E-4,2.612499986E-3,-1.223750040E-2
1.095861888E0,-1.374999993E-4,-5.499999970E-4,-1.223750040E-2
1.098362275E0,-1.374999993E-4,-5.499999970E-4,-1.113750041E-2
1.100862811E0,-1.374999993E-4,-5.499999970E-4,-1.223750040E-2
1.103363198E0,-1.099999994E-3,5.499999970E-4,-1.223750040E-2
1.105863739E0,-1.374999993E-4,-1.649999991E-3,-1.003750041E-2
1.108364126E0,9.624999948E-4,-5.499999970E-4,-1.223750040E-2
1.110864662E0,9.624999948E-4,-5.499999970E-4,-1.223750040E-2
1.113365049E0,-1.374999993E-4,-5.499999970E-4,-1.113750041E-2
1.115865601E0,-1.099999994E-3,5.499999970E-4,-1.113750041E-2
1.118365987E0,-1.374999993E-4,5.499999970E-4,-1.003750041E-2
1.120866524E0,-1.374999993E-4,-5.499999970E-4,-7.974999957E-3
1.123366910E0,-1.374999993E-4,5.499999970E-4,-6.874999963E-3
1.125867179E0,9.624999948E-4,-5.499999970E-4,-5.774999969E-3
1.128367715E0,9.624999948E-4,5.499999970E-4,-5.774999969E-3
1.130868102E0,9.624999948E-4,5.499999970E-4,-3.712499980E-3
1.133368638E0,-1.374999993E-4,1.649999991E-3,5.499999970E-4
1.135869025E0,9.624999948E-4,5.499999970E-4,5.499999970E-4
1.138369553E0,2.062499989E-3,5.499999970E-4,5.499999970E-4
1.140869939E0,-1.374999993E-4,-5.499999970E-4,5.499999970E-4
1.143370476E0,-1.374999993E-4,-5.499999970E-4,2.612499986E-3
1.145870785E0,-1.374999993E-4,-1.649999991E-3,3.712499980E-3
1.148371168E0,9.624999948E-4,-5.499999970E-4,6.874999963E-3
1.150871706E0,-1.099999994E-3,-5.499999970E-4,5.912499968E-3
1.153372093E0,9.624999948E-4,5.499999970E-4,5.912499968E-3
1.155872630E0,9.624999948E-4,5.499999970E-4,5.912499968E-3
1.158373011E0,9.624999948E-4,-5.499999970E-4,7.974999957E-3
1.160873548E0,9.624999948E-4,5.499999970E-4,6.874999963E-3
1.163373934E0,-1.374999993E-4,-5.499999970E-4,6.874999963E-3
1.165874471E0,9.624999948E-4,1.649999991E-3,9.074999951E-3
1.168374857E0,9.624999948E-4,1.649999991E-3,1.113750041E-2
1.170875394E0,9.624999948E-4,5.499999970E-4,9.074999951E-3
1.173375780E0,9.624999948E-4,-5.499999970E-4,1.017499994E-2
1.175876317E0,-1.374999993E-4,5.499999970E-4,1.017499994E-2
1.178376704E0,2.062499989E-3,5.499999970E-4,1.113750041E-2
1.180877221E0,9.624999948E-4,-5.499999970E-4,1.223750040E-2
1.183377531E0,2.062499989E-3,5.499999970E-4,1.443750039E-2
1.185877913E0,-1.374999993E-4,-1.649999991E-3,1.223750040E-2
1.188378452E0,-1.374999993E-4,5.499999970E-4,1.443750039E-2
1.190878829E0,9.624999948E-4,-1.649999991E-3,1.539999992E-2
1.193379366E0,-1.374999993E-4,-5.499999970E-4,1.649999991E-2
1.195879752E0,2.062499989E-3,5.499999970E-4,1.869999990E-2
1.198380289E0,9.624999948E-4,-5.499999970E-4,1.759999990E-2
1.200880676E0,-1.374999993E-4,5.499999970E-4,1.759999990E-2
1.203381226E0,2.062499989E-3,5.499999970E-4,1.869999990E-2
1.205881536E0,-1.374999993E-4,1.649999991E-3,1.966249943E-2
1.208381918E0,9.624999948E-4,-5.499999970E-4,1.759999990E-2
1.210882457E0,9.624999948E-4,5.499999970E-4,2.186249942E-2
1.213382838E0,9.624999948E-4,-1.649999991E-3,2.282499894E-2
1.215883375E0,-1.374999993E-4,-5.499999970E-4,2.076249942E-2
1.218383762E0,-1.374999993E-4,5.499999970E-4,2.502499893E-2
1.220884298E0,-1.374999993E-4,-5.499999970E-4,2.612499893E-2
1.223384685E0,-1.374999993E-4,5.499999970E-4,2.818750031E-2
1.225885221E0,-1.374999993E-4,1.649999991E-3,2.708750032E-2
1.228385608E0,-1.374999993E-4,5.499999970E-4,3.038750030E-2
1.230886144E0,-1.374999993E-4,5.499999970E-4,3.135000169E-2
1.233386531E0,9.624999948E-4,-1.649999991E-3,3.355000168E-2
1.235887072E0,9.624999948E-4,-5.499999970E-4,3.355000168E-2
1.238387459E0,-1.374999993E-4,5.499999970E-4,3.135000169E-2
1.240887995E0,-1.099999994E-3,5.499999970E-4,3.244999796E-2
1.243388382E0,9.624999948E-4,5.499999970E-4,3.244999796E-2
1.245888690E0,-1.374999993E-4,-5.499999970E-4,3.038750030E-2
1.248389226E0,9.624999948E-4,-5.499999970E-4,3.038750030E-2
1.250889613E0,-1.374999993E-4,5.499999970E-4,2.928750031E-2
1.253390149E0,-1.374999993E-4,-5.499999970E-4,2.818750031E-2
1.255890536E0,9.624999948E-4,5.499999970E-4,2.502499893E-2
1.258391072E0,9.624999948E-4,-5.499999970E-4,2.502499893E-2
1.260891459E0,9.624999948E-4,1.649999991E-3,2.076249942E-2
1.263391995E0,-1.099999994E-3,5.499999970E-4,2.076249942E-2
1.265892353E0,-1.099999994E-3,5.499999970E-4,1.966249943E-2
1.268392889E0,-1.374999993E-4,1.649999991E-3,1.759999990E-2
1.270893199E0,9.624999948E-4,-5.499999970E-4,1.113750041E-2
1.273393813E0,-1.374999993E-4,-5.499999970E-4,1.113750041E-2
1.275894122E0,-1.374999993E-4,1.649999991E-3,7.974999957E-3
1.278394512E0,-1.374999993E-4,5.499999970E-4,5.912499968E-3
1.280895048E0,-1.374999993E-4,5.499999970E-4,2.612499986E-3
1.283395435E0,-1.099999994E-3,5.499999970E-4,5.499999970E-4
1.285895971E0,9.624999948E-4,5.499999970E-4,-2.612499986E-3
1.288396353E0,9.624999948E-4,5.499999970E-4,-5.774999969E-3
1.290896890E0,-1.374999993E-4,5.499999970E-4,-9.074999951E-3
1.293397276E0,-1.099999994E-3,-5.499999970E-4,-1.003750041E-2
1.295897813E0,9.624999948E-4,1.649999991E-3,-1.333750039E-2
1.298398199E0,-1.374999993E-4,-5.499999970E-4,-1.429999992E-2
1.300898736E0,-1.374999993E-4,5.499999970E-4,-1.759999990E-2
1.303399122E0,-1.374999993E-4,-5.499999970E-4,-1.856249943E-2
1.305899659E0,9.624999948E-4,-1.649999991E-3,-2.076249942E-2
1.308399969E0,-1.099999994E-3,5.499999970E-4,-2.186249942E-2
1.310900351E0,9.624999948E-4,-5.499999970E-4,-2.392499894E-2
1.313400890E0,-1.374999993E-4,1.649999991E-3,-2.502499893E-2
1.315901276E0,9.624999948E-4,-5.499999970E-4,-2.502499893E-2
1.318401813E0,9.624999948E-4,5.499999970E-4,-2.708750032E-2
1.320902218E0,-1.374999993E-4,5.499999970E-4,-2.612499893E-2
1.323402755E0,-1.099999994E-3,-5.499999970E-4,-2.612499893E-2
1.325903141E0,9.624999948E-4,1.649999991E-3,-2.818750031E-2
1.328403449E0,9.624999948E-4,-5.499999970E-4,-2.708750032E-2
1.330904067E0,-1.374999993E-4,5.499999970E-4,-2.708750032E-2
1.333404377E0,-1.374999993E-4,-5.499999970E-4,-2.928750031E-2
1.335904991E0,-1.099999994E-3,-5.499999970E-4,-2.928750031E-2
1.338405300E0,-2.199999988E-3,-5.499999970E-4,-3.135000169E-2
1.340905823E0,-1.374999993E-4,5.499999970E-4,-3.038750030E-2
1.343406209E0,-1.374999993E-4,-5.499999970E-4,-3.135000169E-2
1.345906746E0,9.624999948E-4,5.499999970E-4,-2.928750031E-2
1.348407132E0,-2.199999988E-3,-1.649999991E-3,-2.928750031E-2
1.350907678E0,-1.374999993E-4,5.499999970E-4,-2.818750031E-2
1.353408065E0,-1.099999994E-3,5.499999970E-4,-2.818750031E-2
1.355908601E0,-2.199999988E-3,5.499999970E-4,-2.708750032E-2
1.358408988E0,-1.374999993E-4,5.499999970E-4,-2.708750032E-2
1.360909524E0,-1.099999994E-3,5.499999970E-4,-2.708750032E-2
1.363409921E0,2.062499989E-3,5.499999970E-4,-2.612499893E-2
1.365910457E0,-1.374999993E-4,-5.499999970E-4,-2.392499894E-2
1.368410844E0,-1.374999993E-4,5.499999970E-4,-2.392499894E-2
1.370911152E0,-1.374999993E-4,1.649999991E-3,-2.076249942E-2
1.373411711E0,-1.099999994E-3,5.499999970E-4,-2.186249942E-2
1.375912098E0,9.624999948E-4,-5.499999970E-4,-2.076249942E-2
1.378412634E0,-1.374999993E-4,5.499999970E-4,-1.759999990E-2
1.380913021E0,-1.374999993E-4,5.499999970E-4,-2.076249942E-2
1.383413571E0,-1.374999993E-4,-1.649999991E-3,-1.856249943E-2
1.385913958E0,-1.099999994E-3,5.499999970E-4,-1.649999991E-2
1.388414494E0,-1.374999993E-4,-1.649999991E-3,-1.856249943E-2
1.390914804E0,-1.374999993E-4,1.649999991E-3,-1.759999990E-2
1.393415393E0,9.624999948E-4,5.499999970E-4,-1.649999991E-2
1.395915703E0,9.624999948E-4,-1.649999991E-3,-1.759999990E-2
1.398416316E0,9.624999948E-4,-5.499999970E-4,-1.856249943E-2
1.400916626E0,9.624999948E-4,1.649999991E-3,-1.759999990E-2
1.403416997E0,9.624999948E-4,5.499999970E-4,-1.856249943E-2
1.405917533E0,9.624999948E-4,-5.499999970E-4,-1.759999990E-2
1.408417920E0,-1.099999994E-3,5.499999970E-4,-1.856249943E-2
1.410918456E0,9.624999948E-4,-5.499999970E-4,-1.856249943E-2
1.413418843E0,9.624999948E-4,5.499999970E-4,-1.759999990E-2
1.415919379E0,-1.374999993E-4,5.499999970E-4,-1.966249943E-2
1.418419766E0,-1.374999993E-4,-5.499999970E-4,-1.759999990E-2
1.420920302E0,-1.374999993E-4,-5.499999970E-4,-1.966249943E-2
1.423420689E0,9.624999948E-4,-5.499999970E-4,-1.856249943E-2
1.425921231E0,-1.374999993E-4,5.499999970E-4,-1.966249943E-2
1.428421617E0,-1.374999993E-4,-5.499999970E-4,-1.856249943E-2
1.430921925E0,-1.374999993E-4,-5.499999970E-4,-1.856249943E-2
1.433422461E0,9.624999948E-4,-5.499999970E-4,-1.966249943E-2
1.435922863E0,-1.099999994E-3,-5.499999970E-4,-1.966249943E-2
1.438423399E0,-1.099999994E-3,5.499999970E-4,-1.759999990E-2
1.440923786E0,9.624999948E-4,1.649999991E-3,-1.856249943E-2
1.443424323E0,-1.374999993E-4,5.499999970E-4,-2.076249942E-2
1.445924709E0,-1.374999993E-4,1.649999991E-3,-1.966249943E-2
1.448425241E0,-1.374999993E-4,-5.499999970E-4,-1.649999991E-2
1.450925550E0,9.624999948E-4,-5.499999970E-4,-1.856249943E-2
1.453425933E0,-1.374999993E-4,5.499999970E-4,-1.539999992E-2
1.455926471E0,9.624999948E-4,5.499999970E-4,-1.223750040E-2
1.458426848E0,-1.099999994E-3,1.649999991E-3,-1.003750041E-2
1.460927384E0,9.624999948E-4,5.499999970E-4,-6.874999963E-3
1.463427771E0,9.624999948E-4,1.649999991E-3,-5.774999969E-3
1.465928308E0,-1.374999993E-4,1.649999991E-3,5.499999970E-4
1.468428704E0,-1.374999993E-4,1.649999991E-3,1.649999991E-3
1.470929241E0,-1.374999993E-4,1.649999991E-3,4.812499974E-3
1.473429627E0,-1.374999993E-4,-5.499999970E-4,1.017499994E-2
1.475930164E0,-1.374999993E-4,1.649999991E-3,1.443750039E-2
1.478430555E0,-1.374999993E-4,-5.499999970E-4,1.759999990E-2
1.480931092E0,-1.374999993E-4,5.499999970E-4,1.869999990E-2
1.483431478E0,-1.374999993E-4,5.499999970E-4,2.186249942E-2
1.485932015E0,-1.374999993E-4,5.499999970E-4,2.612499893E-2
1.488432387E0,2.062499989E-3,5.499999970E-4,2.708750032E-2
1.490932923E0,2.062499989E-3,5.499999970E-4,3.135000169E-2
1.493433233E0,9.624999948E-4,5.499999970E-4,3.561250120E-2
1.495933615E0,-1.374999993E-4,-1.649999991E-3,3.561250120E-2
1.498434154E0,-1.374999993E-4,1.649999991E-3,3.781250119E-2
1.500934564E0,-1.374999993E-4,2.612499986E-3,3.987500072E-2
1.503435101E0,-1.374999993E-4,-5.499999970E-4,4.413750023E-2
1.505935488E0,-1.374999993E-4,5.499999970E-4,4.413750023E-2
1.508436024E0,-1.374999993E-4,-5.499999970E-4,4.523750022E-2
1.510936334E0,9.624999948E-4,1.649999991E-3,4.633750021E-2
1.513436716E0,-1.374999993E-4,5.499999970E-4,4.633750021E-2
1.515937255E0,-1.099999994E-3,-5.499999970E-4,4.743750021E-2
1.518437641E0,-1.374999993E-4,5.499999970E-4,4.839999974E-2
1.520938169E0,9.624999948E-4,5.499999970E-4,4.633750021E-2
1.523438555E0,-1.374999993E-4,2.612499986E-3,4.633750021E-2
1.525939092E0,9.624999948E-4,-5.499999970E-4,4.523750022E-2
1.528439479E0,-1.374999993E-4,5.499999970E-4,4.633750021E-2
1.530940015E0,-1.099999994E-3,5.499999970E-4,4.317500070E-2
1.533440387E0,9.624999948E-4,-5.499999970E-4,4.097500071E-2
1.535940923E0,2.062499989E-3,1.649999991E-3,4.097500071E-2
1.538441310E0,-1.374999993E-4,-5.499999970E-4,4.097500071E-2
1.540941846E0,-1.374999993E-4,1.649999991E-3,3.891250119E-2
1.543442204E0,-1.374999993E-4,-5.499999970E-4,3.891250119E-2
1.545942740E0,-1.374999993E-4,-5.499999970E-4,3.891250119E-2
1.548443127E0,9.624999948E-4,-1.649999991E-3,3.561250120E-2
1.550943435E0,-1.374999993E-4,2.612499986E-3,3.464999795E-2
1.553443971E0,-1.099999994E-3,5.499999970E-4,3.244999796E-2
1.555944363E0,-1.374999993E-4,-5.499999970E-4,3.135000169E-2
1.558444899E0,-1.374999993E-4,1.649999991E-3,2.818750031E-2
1.560945286E0,-1.374999993E-4,5.499999970E-4,2.818750031E-2
1.563445822E0,-1.374999993E-4,1.649999991E-3,2.612499893E-2
1.565946214E0,9.624999948E-4,5.499999970E-4,2.502499893E-2
1.568446750E0,-1.374999993E-4,5.499999970E-4,1.966249943E-2
1.570947137E0,-1.374999993E-4,-5.499999970E-4,1.869999990E-2
1.573447445E0,-1.374999993E-4,5.499999970E-4,1.539999992E-2
1.575948077E0,-1.374999993E-4,-5.499999970E-4,1.333750039E-2
1.578448387E0,-1.374999993E-4,-5.499999970E-4,1.113750041E-2
1.580949000E0,9.624999948E-4,-5.499999970E-4,6.874999963E-3
1.583449310E0,-1.374999993E-4,-1.649999991E-3,6.874999963E-3
1.585949832E0,-1.374999993E-4,-1.649999991E-3,4.812499974E-3
1.588450219E0,-1.374999993E-4,-5.499999970E-4,1.649999991E-3
1.590950755E0,-1.374999993E-4,5.499999970E-4,4.812499974E-3
1.593451142E0,9.624999948E-4,5.499999970E-4,5.499999970E-4
1.595951668E0,-1.374999993E-4,5.499999970E-4,1.649999991E-3
1.598452054E0,9.624999948E-4,1.649999991E-3,-1.649999991E-3
1.600952591E0,-1.374999993E-4,1.649999991E-3,-2.612499986E-3
1.603452977E0,9.624999948E-4,-1.649999991E-3,-2.612499986E-3
1.605953519E0,-1.374999993E-4,5.499999970E-4,-3.712499980E-3
1.608453905E0,-1.374999993E-4,5.499999970E-4,-3.712499980E-3
1.610954442E0,-1.374999993E-4,-1.649999991E-3,-3.712499980E-3
1.613454751E0,-1.099999994E-3,-5.499999970E-4,-1.649999991E-3
1.615955134E0,9.624999948E-4,-5.499999970E-4,-2.612499986E-3
1.618455658E0,-1.374999993E-4,5.499999970E-4,-2.612499986E-3
1.620956044E0,9.624999948E-4,-5.499999970E-4,-4.812499974E-3
1.623456581E0,9.624999948E-4,5.499999970E-4,-1.649999991E-3
1.625956967E0,-1.374999993E-4,5.499999970E-4,1.649999991E-3
1.628457519E0,2.062499989E-3,-1.649999991E-3,1.649999991E-3
1.630957905E0,-1.374999993E-4,-5.499999970E-4,3.712499980E-3
1.633458442E0,-1.099999994E-3,-5.499999970E-4,4.812499974E-3
1.635958752E0,9.624999948E-4,1.649999991E-3,4.812499974E-3
1.638459369E0,9.624999948E-4,5.499999970E-4,6.874999963E-3
1.640959679E0,-1.374999993E-4,5.499999970E-4,1.017499994E-2
1.643460292E0,-1.374999993E-4,5.499999970E-4,1.223750040E-2
1.645960602E0,9.624999948E-4,5.499999970E-4,1.333750039E-2
1.648461215E0,-1.374999993E-4,1.649999991E-3,1.443750039E-2
1.650961540E0,-1.374999993E-4,5.499999970E-4,1.333750039E-2
1.653461924E0,2.062499989E-3,1.649999991E-3,1.869999990E-2
1.655962461E0,-1.374999993E-4,1.649999991E-3,1.649999991E-2
1.658462848E0,9.624999948E-4,-1.649999991E-3,1.759999990E-2
1.660963398E0,-1.374999993E-4,1.649999991E-3,1.869999990E-2
1.663463785E0,9.624999948E-4,-5.499999970E-4,1.966249943E-2
1.665964321E0,-1.374999993E-4,-5.499999970E-4,1.869999990E-2
1.668464708E0,-1.374999993E-4,-5.499999970E-4,1.869999990E-2
1.670965249E0,-2.199999988E-3,-5.499999970E-4,1.966249943E-2
1.673465559E0,-1.099999994E-3,-1.649999991E-3,1.966249943E-2
1.675965941E0,9.624999948E-4,5.499999970E-4,1.966249943E-2
1.678466480E0,-1.374999993E-4,-5.499999970E-4,1.759999990E-2
1.680966881E0,9.624999948E-4,5.499999970E-4,2.186249942E-2
1.683467417E0,-1.374999993E-4,-5.499999970E-4,1.966249943E-2
1.685967804E0,-1.374999993E-4,-5.499999970E-4,2.282499894E-2
1.688468340E0,-1.374999993E-4,-5.499999970E-4,1.966249943E-2
1.690968737E0,-1.374999993E-4,1.649999991E-3,1.966249943E-2
1.693469044E0,-1.099999994E-3,5.499999970E-4,1.966249943E-2
1.695969658E0,9.624999948E-4,5.499999970E-4,1.869999990E-2
1.698469968E0,9.624999948E-4,1.649999991E-3,2.076249942E-2
1.700970576E0,-1.374999993E-4,5.499999970E-4,1.869999990E-2
1.703470886E0,-1.099999994E-3,-5.499999970E-4,1.759999990E-2
1.705971499E0,-1.374999993E-4,-5.499999970E-4,1.869999990E-2
1.708471809E0,-2.199999988E-3,-5.499999970E-4,1.759999990E-2
1.710972442E0,-1.374999993E-4,-5.499999970E-4,1.649999991E-2
1.713472752E0,-1.374999993E-4,5.499999970E-4,1.333750039E-2
1.715973288E0,-1.374999993E-4,-1.649999991E-3,1.333750039E-2
1.718473675E0,2.062499989E-3,-5.499999970E-4,1.223750040E-2
1.720974211E0,-1.374999993E-4,-5.499999970E-4,1.223750040E-2
1.723474583E0,-1.374999993E-4,-5.499999970E-4,1.113750041E-2
1.725975119E0,-1.099999994E-3,-5.499999970E-4,7.974999957E-3
1.728475506E0,-1.099999994E-3,-1.649999991E-3,9.074999951E-3
1.730976043E0,-1.099999994E-3,1.649999991E-3,6.874999963E-3
1.733476362E0,-1.099999994E-3,-5.499999970E-4,7.974999957E-3
1.735976745E0,-1.374999993E-4,5.499999970E-4,7.974999957E-3
1.738477283E0,9.624999948E-4,5.499999970E-4,5.912499968E-3
1.740977670E0,9.624999948E-4,5.499999970E-4,5.912499968E-3
1.743478206E0,9.624999948E-4,1.649999991E-3,4.812499974E-3
1.745978597E0,-1.374999993E-4,-1.649999991E-3,4.812499974E-3
1.748479133E0,-1.099999994E-3,1.649999991E-3,6.874999963E-3
1.750979443E0,-1.374999993E-4,-1.649999991E-3,5.912499968E-3
1.753480057E0,9.624999948E-4,5.499999970E-4,4.812499974E-3
1.755980366E0,-1.099999994E-3,-5.499999970E-4,5.912499968E-3
1.758480980E0,9.624999948E-4,-5.499999970E-4,5.912499968E-3
1.760981289E0,-1.099999994E-3,5.499999970E-4,7.974999957E-3
1.763481674E0,9.624999948E-4,-5.499999970E-4,5.912499968E-3
1.765982210E0,-1.374999993E-4,-5.499999970E-4,7.974999957E-3
1.768482602E0,-1.374999993E-4,5.499999970E-4,7.974999957E-3
1.770983139E0,-1.374999993E-4,-1.649999991E-3,9.074999951E-3
1.773483525E0,-1.374999993E-4,-5.499999970E-4,9.074999951E-3
1.775984062E0,2.062499989E-3,-1.649999991E-3,1.017499994E-2
1.778484443E0,-1.374999993E-4,-5.499999970E-4,1.017499994E-2
1.780984980E0,9.624999948E-4,5.499999970E-4,1.017499994E-2
1.783485366E0,9.624999948E-4,-5.499999970E-4,1.113750041E-2
1.785985903E0,-1.374999993E-4,-1.649999991E-3,1.223750040E-2
1.788486289E0,9.624999948E-4,-1.649999991E-3,1.017499994E-2
1.790986841E0,9.624999948E-4,-1.649999991E-3,1.113750041E-2
1.793487151E0,9.624999948E-4,5.499999970E-4,1.017499994E-2
1.795987533E0,-1.374999993E-4,-5.499999970E-4,1.017499994E-2
1.798488072E0,-1.374999993E-4,1.649999991E-3,1.017499994E-2
1.800988463E0,-1.099999994E-3,-1.649999991E-3,1.017499994E-2
1.803489000E0,-1.099999994E-3,-1.649999991E-3,7.974999957E-3
1.805989386E0,-1.374999993E-4,-2.612499986E-3,9.074999951E-3
1.808489923E0,9.624999948E-4,-5.499999970E-4,5.912499968E-3
1.810990299E0,9.624999948E-4,1.649999991E-3,3.712499980E-3
1.813490607E0,-1.374999993E-4,5.499999970E-4,1.649999991E-3
1.815991221E0,-1.374999993E-4,-1.649999991E-3,-5.499999970E-4
1.818491530E0,-1.374999993E-4,5.499999970E-4,-2.612499986E-3
1.820992125E0,9.624999948E-4,-5.499999970E-4,-2.612499986E-3
1.823492434E0,-1.099999994E-3,5.499999970E-4,-9.074999951E-3
1.825992971E0,-1.374999993E-4,5.499999970E-4,-1.003750041E-2
1.828493357E0,-1.374999993E-4,-5.499999970E-4,-1.333750039E-2
1.830993894E0,-2.199999988E-3,5.499999970E-4,-1.539999992E-2
1.833494281E0,9.624999948E-4,-5.499999970E-4,-1.856249943E-2
1.835994817E0,-1.374999993E-4,1.649999991E-3,-2.392499894E-2
1.838495204E0,-1.374999993E-4,-5.499999970E-4,-2.502499893E-2
1.840995740E0,-1.374999993E-4,5.499999970E-4,-2.928750031E-2
1.843496122E0,-1.374999993E-4,1.649999991E-3,-3.355000168E-2
1.845996658E0,-1.099999994E-3,5.499999970E-4,-3.561250120E-2
1.848497045E0,-1.099999994E-3,-5.499999970E-4,-3.877500072E-2
1.850997581E0,-1.374999993E-4,-5.499999970E-4,-4.097500071E-2
1.853497895E0,-1.374999993E-4,-5.499999970E-4,-4.413750023E-2
1.855998278E0,-1.099999994E-3,-5.499999970E-4,-4.729999974E-2
1.858498816E0,-1.099999994E-3,1.649999991E-3,-4.633750021E-2
1.860999203E0,-1.099999994E-3,-5.499999970E-4,-4.949999973E-2
1.863499739E0,-1.099999994E-3,5.499999970E-4,-5.059999973E-2
1.866000126E0,-1.374999993E-4,-1.649999991E-3,-5.156249925E-2
1.868500662E0,-1.374999993E-4,5.499999970E-4,-5.156249925E-2
1.871001049E0,-1.099999994E-3,-1.649999991E-3,-5.156249925E-2
1.873501585E0,-1.374999993E-4,5.499999970E-4,-5.266249925E-2
1.876001982E0,-1.099999994E-3,-5.499999970E-4,-5.376249924E-2
1.878502518E0,-1.099999994E-3,1.649999991E-3,-5.266249925E-2
1.881002905E0,-1.099999994E-3,5.499999970E-4,-5.582499877E-2
1.883503442E0,9.624999948E-4,-5.499999970E-4,-5.486249924E-2
1.886003737E0,-1.374999993E-4,-5.499999970E-4,-5.156249925E-2
1.888504351E0,-1.374999993E-4,-5.499999970E-4,-5.376249924E-2
1.891004660E0,-1.374999993E-4,5.499999970E-4,-5.376249924E-2
1.893505045E0,-1.374999993E-4,-1.649999991E-3,-5.266249925E-2
1.896005590E0,-1.374999993E-4,5.499999970E-4,-5.266249925E-2
1.898505977E0,9.624999948E-4,-5.499999970E-4,-5.376249924E-2
1.901006513E0,-1.374999993E-4,5.499999970E-4,-5.266249925E-2
1.903506900E0,-1.099999994E-3,-5.499999970E-4,-5.266249925E-2
1.906007437E0,-1.374999993E-4,5.499999970E-4,-4.729999974E-2
1.908507833E0,-1.374999993E-4,5.499999970E-4,-5.156249925E-2
1.911008141E0,-1.374999993E-4,-5.499999970E-4,-4.949999973E-2
1.913508677E0,-1.099999994E-3,-5.499999970E-4,-4.949999973E-2
1.916009064E0,-1.374999993E-4,-5.499999970E-4,-4.949999973E-2
1.918509590E0,-1.374999993E-4,5.499999970E-4,-4.633750021E-2
1.921009977E0,9.624999948E-4,-5.499999970E-4,-4.523750022E-2
1.923510514E0,-1.374999993E-4,2.612499986E-3,-4.729999974E-2
1.926010900E0,-2.199999988E-3,-5.499999970E-4,-4.523750022E-2
1.928511442E0,9.624999948E-4,5.499999970E-4,-4.303750023E-2
1.931011828E0,9.624999948E-4,-5.499999970E-4,-4.207500070E-2
1.933512365E0,-1.374999993E-4,-5.499999970E-4,-3.987500072E-2
1.936012751E0,-1.374999993E-4,1.649999991E-3,-3.877500072E-2
1.938513293E0,-1.374999993E-4,1.649999991E-3,-3.671250120E-2
1.941013679E0,-1.099999994E-3,-5.499999970E-4,-3.561250120E-2
1.943514216E0,-1.099999994E-3,-1.649999991E-3,-3.561250120E-2
1.946014602E0,9.624999948E-4,2.612499986E-3,-3.451250121E-2
1.948514910E0,-1.374999993E-4,5.499999970E-4,-3.355000168E-2
1.951015447E0,-1.099999994E-3,5.499999970E-4,-3.244999796E-2
1.953515833E0,9.624999948E-4,5.499999970E-4,-3.135000169E-2
1.956016370E0,-1.099999994E-3,-5.499999970E-4,-3.244999796E-2
1.958516756E0,-1.374999993E-4,1.649999991E-3,-2.928750031E-2
1.961017307E0,-1.099999994E-3,5.499999970E-4,-2.818750031E-2
1.963517693E0,-1.374999993E-4,5.499999970E-4,-2.502499893E-2
1.966018230E0,-1.099999994E-3,5.499999970E-4,-2.612499893E-2
1.968518617E0,-1.374999993E-4,-5.499999970E-4,-2.612499893E-2
1.971018924E0,-1.374999993E-4,5.499999970E-4,-2.392499894E-2
1.973519457E0,-1.374999993E-4,5.499999970E-4,-2.282499894E-2
1.976019843E0,-1.374999993E-4,5.499999970E-4,-2.186249942E-2
1.978520380E0,-1.374999993E-4,-5.499999970E-4,-1.966249943E-2
1.981020766E0,-1.099999994E-3,1.649999991E-3,-1.759999990E-2
1.983521312E0,-1.374999993E-4,5.499999970E-4,-1.649999991E-2
1.986021699E0,-1.099999994E-3,5.499999970E-4,-1.429999992E-2
1.988522235E0,9.624999948E-4,5.499999970E-4,-1.333750039E-2
1.991022545E0,-1.374999993E-4,-5.499999970E-4,-1.113750041E-2
1.993523177E0,9.624999948E-4,5.499999970E-4,-9.074999951E-3
1.996023487E0,-1.099999994E-3,-5.499999970E-4,-6.874999963E-3
1.998524100E0,-1.099999994E-3,1.649999991E-3,-4.812499974E-3
2.001024410E0,-1.099999994E-3,-1.649999991E-3,-2.612499986E-3
2.003525008E0,9.624999948E-4,-1.649999991E-3,5.499999970E-4
2.006025395E0,-1.374999993E-4,5.499999970E-4,5.499999970E-4
2.008525931E0,-1.374999993E-4,5.499999970E-4,4.812499974E-3
2.011026241E0,-2.199999988E-3,5.499999970E-4,7.974999957E-3
2.013526624E0,-1.099999994E-3,5.499999970E-4,1.017499994E-2
2.016027158E0,9.624999948E-4,5.499999970E-4,1.333750039E-2
2.018527545E0,-1.374999993E-4,-5.499999970E-4,1.759999990E-2
2.021028081E0,-1.374999993E-4,5.499999970E-4,1.869999990E-2
2.023528468E0,9.624999948E-4,5.499999970E-4,2.392499894E-2
2.026028985E0,-1.099999994E-3,2.612499986E-3,2.502499893E-2
2.028529372E0,-1.374999993E-4,1.649999991E-3,2.708750032E-2
2.031029680E0,9.624999948E-4,-1.649999991E-3,2.708750032E-2
2.033530216E0,-1.374999993E-4,5.499999970E-4,3.038750030E-2
2.036030603E0,9.624999948E-4,2.612499986E-3,3.038750030E-2
2.038531139E0,-1.374999993E-4,1.649999991E-3,3.464999795E-2
2.041031526E0,-1.374999993E-4,5.499999970E-4,3.464999795E-2
2.043532062E0,-1.099999994E-3,5.499999970E-4,3.561250120E-2
2.046032449E0,9.624999948E-4,5.499999970E-4,3.561250120E-2
2.048532985E0,9.624999948E-4,5.499999970E-4,3.671250120E-2
2.051033372E0,9.624999948E-4,5.499999970E-4,3.781250119E-2
2.053533680E0,-1.374999993E-4,-1.649999991E-3,3.891250119E-2
2.056034293E0,-1.374999993E-4,-5.499999970E-4,3.891250119E-2
2.058534613E0,9.624999948E-4,-5.499999970E-4,4.207500070E-2
2.061035226E0,9.624999948E-4,5.499999970E-4,4.207500070E-2
2.063535536E0,-1.099999994E-3,5.499999970E-4,4.317500070E-2
2.066036149E0,9.624999948E-4,-1.649999991E-3,4.523750022E-2
2.068536459E0,-1.374999993E-4,1.649999991E-3,4.523750022E-2
2.071036995E0,-1.374999993E-4,1.649999991E-3,4.743750021E-2
2.073537382E0,-1.374999993E-4,1.649999991E-3,4.633750021E-2
2.076037919E0,9.624999948E-4,5.499999970E-4,4.633750021E-2
2.078538300E0,9.624999948E-4,-5.499999970E-4,4.523750022E-2
2.081038837E0,-1.374999993E-4,-5.499999970E-4,4.523750022E-2
2.083539223E0,-1.374999993E-4,-1.649999991E-3,4.633750021E-2
2.086039760E0,2.062499989E-3,5.499999970E-4,4.207500070E-2
2.088540146E0,9.624999948E-4,-5.499999970E-4,4.317500070E-2
2.091040683E0,9.624999948E-4,1.649999991E-3,4.207500070E-2
2.093540992E0,9.624999948E-4,-5.499999970E-4,4.097500071E-2
2.096041375E0,9.624999948E-4,-5.499999970E-4,3.987500072E-2
2.098541914E0,-1.374999993E-4,5.499999970E-4,3.781250119E-2
2.101042281E0,-1.374999993E-4,-5.499999970E-4,3.671250120E-2
2.103542818E0,9.624999948E-4,-5.499999970E-4,3.355000168E-2
2.106043204E0,-1.374999993E-4,5.499999970E-4,3.038750030E-2
2.108543741E0,9.624999948E-4,-5.499999970E-4,3.038750030E-2
2.111044121E0,9.624999948E-4,-5.499999970E-4,2.708750032E-2
2.113544658E0,2.062499989E-3,5.499999970E-4,2.502499893E-2
2.116045044E0,9.624999948E-4,-5.499999970E-4,2.392499894E-2
2.118545581E0,-1.099999994E-3,-5.499999970E-4,1.869999990E-2
2.121045891E0,-1.374999993E-4,-5.499999970E-4,1.966249943E-2
2.123546504E0,9.624999948E-4,2.612499986E-3,1.539999992E-2
2.126046814E0,-1.099999994E-3,5.499999970E-4,1.113750041E-2
2.128547427E0,-1.374999993E-4,-5.499999970E-4,1.113750041E-2
2.131047718E0,-1.374999993E-4,5.499999970E-4,5.912499968E-3
2.133548102E0,2.062499989E-3,-5.499999970E-4,3.712499980E-3
2.136048639E0,-1.374999993E-4,5.499999970E-4,5.499999970E-4
2.138549025E0,9.624999948E-4,-5.499999970E-4,-1.649999991E-3
2.141049562E0,-1.374999993E-4,5.499999970E-4,-4.812499974E-3
2.143549954E0,-1.374999993E-4,-5.499999970E-4,-5.774999969E-3
2.146050490E0,9.624999948E-4,-5.499999970E-4,-5.774999969E-3
2.148550800E0,2.062499989E-3,-5.499999970E-4,-9.074999951E-3
2.151051182E0,9.624999948E-4,-5.499999970E-4,-1.003750041E-2
2.153551711E0,-1.374999993E-4,-5.499999970E-4,-1.113750041E-2
2.156052097E0,-1.374999993E-4,-5.499999970E-4,-1.223750040E-2
2.158552634E0,-1.374999993E-4,-5.499999970E-4,-1.223750040E-2
2.161053021E0,9.624999948E-4,5.499999970E-4,-1.429999992E-2
2.163553543E0,-1.374999993E-4,5.499999970E-4,-1.333750039E-2
2.166053930E0,-1.374999993E-4,-5.499999970E-4,-1.429999992E-2
2.168554466E0,9.624999948E-4,-5.499999970E-4,-1.429999992E-2
2.171054853E0,-1.099999994E-3,-5.499999970E-4,-1.333750039E-2
2.173555389E0,-1.374999993E-4,-5.499999970E-4,-1.429999992E-2
2.176055780E0,-1.374999993E-4,-5.499999970E-4,-1.429999992E-2
2.178556316E0,9.624999948E-4,-5.499999970E-4,-1.429999992E-2
2.181056703E0,9.624999948E-4,-5.499999970E-4,-1.539999992E-2
2.183557239E0,-1.099999994E-3,-5.499999970E-4,-1.759999990E-2
2.186057626E0,9.624999948E-4,-1.649999991E-3,-1.429999992E-2
2.188557934E0,-1.099999994E-3,-5.499999970E-4,-1.539999992E-2
2.191058470E0,9.624999948E-4,5.499999970E-4,-1.539999992E-2
2.193558857E0,-1.374999993E-4,5.499999970E-4,-1.759999990E-2
2.196059393E0,-1.374999993E-4,-5.499999970E-4,-1.649999991E-2
2.198559795E0,-1.374999993E-4,-5.499999970E-4,-1.759999990E-2
2.201060331E0,9.624999948E-4,5.499999970E-4,-1.856249943E-2
2.203560718E0,2.062499989E-3,-1.649999991E-3,-1.649999991E-2
2.206061254E0,-1.099999994E-3,-5.499999970E-4,-1.759999990E-2
2.208561573E0,9.624999948E-4,-5.499999970E-4,-1.759999990E-2
2.211061956E0,9.624999948E-4,1.649999991E-3,-1.759999990E-2
2.213562494E0,2.062499989E-3,-5.499999970E-4,-1.759999990E-2
2.216062881E0,9.624999948E-4,5.499999970E-4,-1.759999990E-2
2.218563412E0,-1.099999994E-3,-5.499999970E-4,-1.649999991E-2
2.221063799E0,-1.374999993E-4,-5.499999970E-4,-1.539999992E-2
2.223564335E0,-1.374999993E-4,5.499999970E-4,-1.539999992E-2
2.226064722E0,-1.374999993E-4,-5.499999970E-4,-1.429999992E-2
2.228565258E0,-1.374999993E-4,-5.499999970E-4,-1.539999992E-2
2.231065641E0,9.624999948E-4,5.499999970E-4,-1.333750039E-2
2.233566178E0,-1.374999993E-4,5.499999970E-4,-1.429999992E-2
2.236066564E0,9.624999948E-4,-5.499999970E-4,-1.223750040E-2
2.238567101E0,9.624999948E-4,1.649999991E-3,-1.113750041E-2
2.241067477E0,9.624999948E-4,-5.499999970E-4,-1.113750041E-2
2.243568014E0,-1.374999993E-4,-5.499999970E-4,-1.003750041E-2
2.246068400E0,-1.374999993E-4,-1.649999991E-3,-1.003750041E-2
2.248568708E0,-1.374999993E-4,5.499999970E-4,-9.074999951E-3
2.251069227E0,-1.099999994E-3,-5.499999970E-4,-6.874999963E-3
2.253569613E0,9.624999948E-4,5.499999970E-4,-4.812499974E-3
2.256070150E0,9.624999948E-4,-5.499999970E-4,-3.712499980E-3
2.258570536E0,-1.374999993E-4,-5.499999970E-4,-2.612499986E-3
2.261071063E0,-1.374999993E-4,-5.499999970E-4,-2.612499986E-3
2.263571449E0,9.624999948E-4,-5.499999970E-4,5.499999970E-4
2.266071986E0,-1.374999993E-4,-5.499999970E-4,3.712499980E-3
2.268572372E0,-1.374999993E-4,-1.649999991E-3,3.712499980E-3
2.271072713E0,9.624999948E-4,5.499999970E-4,4.812499974E-3
2.273573250E0,-1.374999993E-4,-1.649999991E-3,6.874999963E-3
2.276073636E0,-1.374999993E-4,-1.649999991E-3,6.874999963E-3
2.278574173E0,9.624999948E-4,-5.499999970E-4,9.074999951E-3
2.281074559E0,2.062499989E-3,-5.499999970E-4,1.017499994E-2
2.283575096E0,-1.374999993E-4,5.499999970E-4,1.113750041E-2
2.286075482E0,-1.374999993E-4,-1.649999991E-3,1.333750039E-2
2.288576019E0,9.624999948E-4,-5.499999970E-4,1.443750039E-2
2.291076405E0,-1.374999993E-4,-5.499999970E-4,1.539999992E-2
2.293576961E0,-1.374999993E-4,5.499999970E-4,1.649999991E-2
2.296077348E0,-1.099999994E-3,-5.499999970E-4,1.649999991E-2
2.298577884E0,-1.099999994E-3,-5.499999970E-4,1.966249943E-2
2.301078271E0,-1.374999993E-4,-5.499999970E-4,1.869999990E-2
2.303578797E0,-1.374999993E-4,1.649999991E-3,2.186249942E-2
2.306079184E0,9.624999948E-4,5.499999970E-4,2.186249942E-2
2.308579491E0,-1.374999993E-4,-5.499999970E-4,2.076249942E-2
2.311080028E0,-1.374999993E-4,5.499999970E-4,2.282499894E-2
2.313580410E0,2.062499989E-3,-5.499999970E-4,2.282499894E-2
2.316080946E0,2.062499989E-3,5.499999970E-4,2.282499894E-2
2.318581333E0,-1.374999993E-4,5.499999970E-4,2.186249942E-2
2.321081869E0,-1.374999993E-4,1.649999991E-3,2.186249942E-2
2.323582256E0,-1.374999993E-4,5.499999970E-4,1.966249943E-2
2.326082807E0,-1.099999994E-3,5.499999970E-4,2.076249942E-2
2.328583117E0,2.062499989E-3,-5.499999970E-4,1.759999990E-2
2.331083730E0,-1.374999993E-4,-1.649999991E-3,1.649999991E-2
2.333584040E0,9.624999948E-4,5.499999970E-4,1.443750039E-2
2.336084648E0,9.624999948E-4,-5.499999970E-4,1.443750039E-2
2.338584958E0,9.624999948E-4,-5.499999970E-4,1.443750039E-2
2.341085571E0,9.624999948E-4,-5.499999970E-4,1.223750040E-2
2.343585881E0,-1.374999993E-4,-5.499999970E-4,9.074999951E-3
2.346086242E0,-1.374999993E-4,5.499999970E-4,9.074999951E-3
2.348586778E0,9.624999948E-4,5.499999970E-4,6.874999963E-3
2.351087165E0,9.624999948E-4,-5.499999970E-4,5.912499968E-3
2.353587701E0,-1.374999993E-4,5.499999970E-4,3.712499980E-3
2.356088093E0,-1.099999994E-3,-5.499999970E-4,4.812499974E-3
2.358588629E0,9.624999948E-4,5.499999970E-4,2.612499986E-3
2.361089016E0,-1.374999993E-4,-1.649999991E-3,-1.649999991E-3
2.363589552E0,-1.374999993E-4,-5.499999970E-4,-5.499999970E-4
2.366089857E0,-1.374999993E-4,-5.499999970E-4,-2.612499986E-3
2.368590240E0,2.062499989E-3,5.499999970E-4,-6.874999963E-3
2.371090778E0,9.624999948E-4,5.499999970E-4,-5.774999969E-3
2.373591165E0,9.624999948E-4,5.499999970E-4,-7.974999957E-3
2.376091682E0,-1.374999993E-4,-5.499999970E-4,-1.003750041E-2
2.378592069E0,9.624999948E-4,-5.499999970E-4,-1.113750041E-2
2.381092605E0,-1.374999993E-4,-5.499999970E-4,-1.113750041E-2
2.383592992E0,-1.374999993E-4,-5.499999970E-4,-1.223750040E-2
2.386093300E0,9.624999948E-4,-5.499999970E-4,-1.333750039E-2
2.388593932E0,9.624999948E-4,5.499999970E-4,-1.429999992E-2
2.391094242E0,-1.374999993E-4,-5.499999970E-4,-1.539999992E-2
2.393594855E0,9.624999948E-4,-5.499999970E-4,-1.649999991E-2
2.396095165E0,-1.099999994E-3,-5.499999970E-4,-1.649999991E-2
2.398595782E0,9.624999948E-4,5.499999970E-4,-1.539999992E-2
2.401096092E0,9.624999948E-4,-5.499999970E-4,-1.759999990E-2
2.403596705E0,-2.199999988E-3,5.499999970E-4,-1.649999991E-2
2.406097015E0,-1.374999993E-4,-1.649999991E-3,-1.649999991E-2
2.408597562E0,-1.374999993E-4,2.612499986E-3,-1.649999991E-2
2.411097948E0,-1.099999994E-3,-5.499999970E-4,-1.759999990E-2
2.413598485E0,-1.374999993E-4,-5.499999970E-4,-1.649999991E-2
2.416098871E0,9.624999948E-4,1.649999991E-3,-1.539999992E-2
2.418599418E0,-1.099999994E-3,-5.499999970E-4,-1.539999992E-2
2.421099804E0,2.062499989E-3,-5.499999970E-4,-1.539999992E-2
2.423600112E0,9.624999948E-4,-5.499999970E-4,-1.539999992E-2
2.426100649E0,9.624999948E-4,1.649999991E-3,-1.333750039E-2
2.428601044E0,9.624999948E-4,-1.649999991E-3,-1.223750040E-2
2.431101581E0,-1.099999994E-3,5.499999970E-4,-7.974999957E-3
2.433601967E0,-1.099999994E-3,-1.649999991E-3,-4.812499974E-3
2.436102475E0,-1.374999993E-4,-5.499999970E-4,-2.612499986E-3
2.438602861E0,-1.374999993E-4,5.499999970E-4,1.649999991E-3
2.441103398E0,9.624999948E-4,5.499999970E-4,1.649999991E-3
2.443603708E0,-1.374999993E-4,-5.499999970E-4,4.812499974E-3
2.446104321E0,-1.099999994E-3,-5.499999970E-4,5.912499968E-3
2.448604631E0,-1.374999993E-4,-2.612499986E-3,5.912499968E-3
2.451105255E0,9.624999948E-4,5.499999970E-4,5.912499968E-3
2.453605565E0,-1.374999993E-4,-5.499999970E-4,9.074999951E-3
2.456105949E0,9.624999948E-4,5.499999970E-4,1.333750039E-2
2.458606486E0,-1.374999993E-4,5.499999970E-4,1.443750039E-2
2.461106872E0,9.624999948E-4,-5.499999970E-4,1.649999991E-2
2.463607399E0,-1.374999993E-4,5.499999970E-4,1.869999990E-2
2.466107786E0,9.624999948E-4,-1.649999991E-3,2.076249942E-2
2.468608322E0,-1.099999994E-3,5.499999970E-4,2.392499894E-2
2.471108709E0,9.624999948E-4,-1.649999991E-3,2.818750031E-2
2.473609284E0,-1.099999994E-3,5.499999970E-4,2.818750031E-2
2.476109671E0,9.624999948E-4,-5.499999970E-4,2.928750031E-2
2.478610207E0,3.162499983E-3,-5.499999970E-4,3.355000168E-2
2.481110594E0,-1.099999994E-3,5.499999970E-4,3.355000168E-2
2.483610901E0,2.062499989E-3,5.499999970E-4,3.355000168E-2
2.486111433E0,9.624999948E-4,1.649999991E-3,3.561250120E-2
2.488611820E0,-1.374999993E-4,-5.499999970E-4,3.781250119E-2
2.491112356E0,9.624999948E-4,1.649999991E-3,3.561250120E-2
2.493612743E0,-1.374999993E-4,-5.499999970E-4,3.355000168E-2
2.496113269E0,-1.374999993E-4,-5.499999970E-4,3.244999796E-2
2.498613656E0,9.624999948E-4,-5.499999970E-4,3.135000169E-2
2.501114192E0,9.624999948E-4,5.499999970E-4,2.708750032E-2
2.503614579E0,-1.374999993E-4,5.499999970E-4,2.612499893E-2
2.506114878E0,2.062499989E-3,5.499999970E-4,2.392499894E-2
2.508615491E0,-1.099999994E-3,-5.499999970E-4,2.186249942E-2
2.511115801E0,9.624999948E-4,5.499999970E-4,1.649999991E-2
2.513616414E0,-1.099999994E-3,-5.499999970E-4,1.333750039E-2
2.516116743E0,-1.374999993E-4,-5.499999970E-4,1.223750040E-2
2.518617279E0,-1.374999993E-4,5.499999970E-4,7.974999957E-3
2.521117666E0,9.624999948E-4,-5.499999970E-4,4.812499974E-3
2.523618202E0,-1.374999993E-4,5.499999970E-4,-5.499999970E-4
2.526118574E0,9.624999948E-4,-5.499999970E-4,-2.612499986E-3
2.528619110E0,9.624999948E-4,-5.499999970E-4,-2.612499986E-3
2.531119497E0,9.624999948E-4,-5.499999970E-4,-7.974999957E-3
2.533620033E0,-1.374999993E-4,-1.649999991E-3,-1.003750041E-2
2.536120439E0,9.624999948E-4,1.649999991E-3,-1.539999992E-2
2.538620747E0,-1.374999993E-4,5.499999970E-4,-1.539999992E-2
2.541121283E0,-1.374999993E-4,5.499999970E-4,-1.856249943E-2
2.543621670E0,-1.099999994E-3,-5.499999970E-4,-2.282499894E-2
2.546122206E0,-1.374999993E-4,-5.499999970E-4,-2.392499894E-2
2.548622608E0,-1.374999993E-4,-1.649999991E-3,-2.612499893E-2
2.551123144E0,-1.374999993E-4,-5.499999970E-4,-2.818750031E-2
2.553623531E0,-1.374999993E-4,-5.499999970E-4,-3.038750030E-2
2.556124067E0,-1.374999993E-4,-5.499999970E-4,-3.355000168E-2
2.558624454E0,9.624999948E-4,-5.499999970E-4,-3.355000168E-2
2.561124991E0,-1.374999993E-4,-5.499999970E-4,-3.671250120E-2
2.563625377E0,9.624999948E-4,-5.499999970E-4,-3.877500072E-2
2.566125914E0,9.624999948E-4,5.499999970E-4,-3.877500072E-2
2.568626286E0,-1.374999993E-4,-5.499999970E-4,-4.303750023E-2
2.571126823E0,9.624999948E-4,-5.499999970E-4,-4.207500070E-2
2.573627209E0,-1.099999994E-3,5.499999970E-4,-4.413750023E-2
2.576127746E0,-1.374999993E-4,-1.649999991E-3,-4.523750022E-2
2.578628056E0,-1.099999994E-3,-5.499999970E-4,-4.729999974E-2
2.581128442E0,-1.374999993E-4,-5.499999970E-4,-4.949999973E-2
2.583628981E0,9.624999948E-4,-5.499999970E-4,-4.949999973E-2
2.586129367E0,9.624999948E-4,-1.649999991E-3,-5.059999973E-2
2.588629904E0,-1.374999993E-4,-1.649999991E-3,-5.156249925E-2
2.591130285E0,-1.374999993E-4,1.649999991E-3,-5.156249925E-2
2.593630822E0,9.624999948E-4,5.499999970E-4,-5.376249924E-2
2.596131132E0,-1.099999994E-3,-5.499999970E-4,-5.376249924E-2
2.598631514E0,-1.099999994E-3,-5.499999970E-4,-5.486249924E-2
2.601132053E0,-1.374999993E-4,1.649999991E-3,-5.582499877E-2
2.603632449E0,-1.374999993E-4,-1.649999991E-3,-5.376249924E-2
2.606132986E0,-1.374999993E-4,-5.499999970E-4,-5.376249924E-2
2.608633372E0,-1.374999993E-4,-1.649999991E-3,-5.266249925E-2
2.611133909E0,9.624999948E-4,-5.499999970E-4,-5.059999973E-2
2.613634319E0,-1.374999993E-4,1.649999991E-3,-4.949999973E-2
2.616134856E0,9.624999948E-4,-5.499999970E-4,-4.839999974E-2
2.618635242E0,9.624999948E-4,5.499999970E-4,-4.729999974E-2
2.621135779E0,-1.374999993E-4,-5.499999970E-4,-4.413750023E-2
2.623636151E0,-2.199999988E-3,1.649999991E-3,-4.303750023E-2
2.626136687E0,9.624999948E-4,5.499999970E-4,-3.987500072E-2
2.628637074E0,-1.374999993E-4,5.499999970E-4,-3.877500072E-2
2.631137610E0,-1.099999994E-3,-5.499999970E-4,-3.781250119E-2
2.633637987E0,9.624999948E-4,-5.499999970E-4,-3.451250121E-2
2.636138294E0,-1.374999993E-4,-5.499999970E-4,-3.135000169E-2
2.638638831E0,-1.374999993E-4,5.499999970E-4,-3.135000169E-2
2.641139218E0,-1.374999993E-4,5.499999970E-4,-2.928750031E-2
2.643639754E0,3.162499983E-3,5.499999970E-4,-2.818750031E-2
2.646140127E0,9.624999948E-4,5.499999970E-4,-2.708750032E-2
2.648640663E0,9.624999948E-4,-2.612499986E-3,-2.502499893E-2
2.651141050E0,9.624999948E-4,5.499999970E-4,-2.392499894E-2
2.653641357E0,-1.099999994E-3,5.499999970E-4,-2.186249942E-2
2.656141884E0,2.062499989E-3,5.499999970E-4,-1.966249943E-2
2.658642271E0,2.062499989E-3,-1.649999991E-3,-1.966249943E-2
2.661142807E0,-1.374999993E-4,5.499999970E-4,-1.856249943E-2
2.663643194E0,-1.374999993E-4,5.499999970E-4,-1.649999991E-2
2.666143735E0,9.624999948E-4,1.649999991E-3,-1.649999991E-2
2.668644122E0,-1.374999993E-4,5.499999970E-4,-1.223750040E-2
2.671144658E0,-1.374999993E-4,5.499999970E-4,-1.113750041E-2
2.673645045E0,9.624999948E-4,-5.499999970E-4,-1.003750041E-2
2.676145576E0,-1.374999993E-4,5.499999970E-4,-6.874999963E-3
2.678645963E0,-1.099999994E-3,5.499999970E-4,-6.874999963E-3
2.681146499E0,9.624999948E-4,-1.649999991E-3,-5.774999969E-3
2.683646886E0,-1.374999993E-4,-5.499999970E-4,-3.712499980E-3
2.686147422E0,-1.374999993E-4,5.499999970E-4,-4.812499974E-3
2.688647732E0,9.624999948E-4,-5.499999970E-4,-2.612499986E-3
2.691148115E0,9.624999948E-4,5.499999970E-4,-2.612499986E-3
2.693648653E0,-1.374999993E-4,-5.499999970E-4,-5.499999970E-4
2.696149040E0,9.624999948E-4,5.499999970E-4,-5.499999970E-4
2.698649581E0,-1.099999994E-3,-5.499999970E-4,1.649999991E-3
2.701149968E0,-1.374999993E-4,1.649999991E-3,2.612499986E-3
2.703650504E0,9.624999948E-4,5.499999970E-4,2.612499986E-3
2.706150891E0,-1.374999993E-4,1.649999991E-3,3.712499980E-3
2.708651407E0,9.624999948E-4,5.499999970E-4,4.812499974E-3
2.711151794E0,-1.374999993E-4,-5.499999970E-4,4.812499974E-3
2.713652102E0,-1.374999993E-4,5.499999970E-4,5.912499968E-3
2.716152638E0,-1.374999993E-4,5.499999970E-4,7.974999957E-3
2.718653025E0,-1.374999993E-4,1.649999991E-3,6.874999963E-3
2.721153566E0,9.624999948E-4,-5.499999970E-4,7.974999957E-3
2.723653953E0,9.624999948E-4,5.499999970E-4,9.074999951E-3
2.726154489E0,-1.099999994E-3,5.499999970E-4,9.074999951E-3
2.728654876E0,9.624999948E-4,-5.499999970E-4,1.017499994E-2
2.731155403E0,-1.374999993E-4,5.499999970E-4,1.113750041E-2
2.733655789E0,-1.374999993E-4,5.499999970E-4,1.113750041E-2
2.736156326E0,9.624999948E-4,5.499999970E-4,1.113750041E-2
2.738656712E0,9.624999948E-4,5.499999970E-4,1.223750040E-2
2.741157278E0,-1.374999993E-4,-5.499999970E-4,1.443750039E-2
2.743657664E0,9.624999948E-4,-1.649999991E-3,1.539999992E-2
2.746158201E0,9.624999948E-4,5.499999970E-4,1.759999990E-2
2.748658587E0,-1.374999993E-4,-1.649999991E-3,2.076249942E-2
2.751158895E0,-1.099999994E-3,-1.649999991E-3,2.502499893E-2
2.753659427E0,9.624999948E-4,5.499999970E-4,2.708750032E-2
2.756159813E0,9.624999948E-4,5.499999970E-4,3.244999796E-2
2.758660350E0,9.624999948E-4,1.649999991E-3,3.355000168E-2
2.761160736E0,9.624999948E-4,-5.499999970E-4,3.671250120E-2
2.763661283E0,9.624999948E-4,1.649999991E-3,3.891250119E-2
2.766161669E0,9.624999948E-4,1.649999991E-3,3.987500072E-2
2.768661977E0,9.624999948E-4,5.499999970E-4,3.891250119E-2
2.771162514E0,-1.374999993E-4,-5.499999970E-4,4.097500071E-2
2.773662886E0,9.624999948E-4,-5.499999970E-4,4.097500071E-2
2.776163423E0,-1.374999993E-4,1.649999991E-3,4.097500071E-2
2.778663809E0,3.162499983E-3,-1.649999991E-3,4.317500070E-2
2.781164346E0,2.062499989E-3,-5.499999970E-4,4.317500070E-2
2.783664732E0,-1.374999993E-4,-5.499999970E-4,4.413750023E-2
2.786165273E0,9.624999948E-4,1.649999991E-3,4.413750023E-2
2.788665659E0,-1.374999993E-4,-5.499999970E-4,4.743750021E-2
2.791166196E0,-1.374999993E-4,5.499999970E-4,4.839999974E-2
2.793666583E0,9.624999948E-4,-1.649999991E-3,4.839999974E-2
2.796167124E0,9.624999948E-4,5.499999970E-4,4.839999974E-2
2.798667511E0,2.062499989E-3,5.499999970E-4,5.059999973E-2
2.801168047E0,9.624999948E-4,5.499999970E-4,4.949999973E-2
2.803668434E0,2.062499989E-3,-5.499999970E-4,5.059999973E-2
2.806168970E0,9.624999948E-4,-5.499999970E-4,5.059999973E-2
2.808669280E0,2.062499989E-3,5.499999970E-4,5.156249925E-2
2.811169662E0,-1.099999994E-3,5.499999970E-4,4.949999973E-2
2.813670201E0,9.624999948E-4,5.499999970E-4,5.059999973E-2
2.816170579E0,9.624999948E-4,-1.649999991E-3,4.949999973E-2
2.818671115E0,9.624999948E-4,5.499999970E-4,4.743750021E-2
2.821171502E0,9.624999948E-4,-5.499999970E-4,4.949999973E-2
2.823672038E0,-1.374999993E-4,-5.499999970E-4,4.839999974E-2
2.826172434E0,9.624999948E-4,-5.499999970E-4,4.839999974E-2
2.828672741E0,2.062499989E-3,-1.649999991E-3,4.743750021E-2
2.831173278E0,9.624999948E-4,5.499999970E-4,5.059999973E-2
2.833673651E0,-1.374999993E-4,-5.499999970E-4,4.743750021E-2
2.836174187E0,2.062499989E-3,5.499999970E-4,4.839999974E-2
2.838674574E0,2.062499989E-3,-5.499999970E-4,4.743750021E-2
2.841175110E0,-1.374999993E-4,-5.499999970E-4,4.633750021E-2
2.843675497E0,-1.374999993E-4,5.499999970E-4,4.413750023E-2
2.846176033E0,9.624999948E-4,1.649999991E-3,4.523750022E-2
2.848676439E0,-1.099999994E-3,-1.649999991E-3,4.413750023E-2
2.851176975E0,2.062499989E-3,-5.499999970E-4,4.317500070E-2
2.853677362E0,9.624999948E-4,-5.499999970E-4,4.097500071E-2
2.856177898E0,9.624999948E-4,-5.499999970E-4,3.891250119E-2
2.858678285E0,9.624999948E-4,1.649999991E-3,3.561250120E-2
2.861178821E0,-1.374999993E-4,5.499999970E-4,3.244999796E-2
2.863679131E0,9.624999948E-4,5.499999970E-4,3.135000169E-2
2.866179514E0,-1.374999993E-4,-1.649999991E-3,2.502499893E-2
2.868680052E0,2.062499989E-3,1.649999991E-3,2.502499893E-2
2.871180425E0,-1.374999993E-4,-5.499999970E-4,2.392499894E-2
2.873680961E0,-1.374999993E-4,-5.499999970E-4,2.076249942E-2
2.876181348E0,9.624999948E-4,-1.649999991E-3,2.186249942E-2
2.878681884E0,9.624999948E-4,-1.649999991E-3,1.869999990E-2
2.881182261E0,9.624999948E-4,5.499999970E-4,2.076249942E-2
2.883682798E0,9.624999948E-4,-5.499999970E-4,2.076249942E-2
2.886183107E0,-1.374999993E-4,-5.499999970E-4,2.186249942E-2
2.888683721E0,-1.374999993E-4,-2.612499986E-3,2.392499894E-2
2.891184035E0,-1.374999993E-4,-1.649999991E-3,2.502499893E-2
2.893684420E0,9.624999948E-4,2.612499986E-3,2.502499893E-2
2.896184956E0,9.624999948E-4,2.612499986E-3,2.928750031E-2
2.898685343E0,-1.374999993E-4,5.499999970E-4,3.244999796E-2
2.901185879E0,9.624999948E-4,-5.499999970E-4,3.135000169E-2
2.903686270E0,-1.374999993E-4,-5.499999970E-4,3.561250120E-2
2.906186807E0,-1.374999993E-4,-5.499999970E-4,3.464999795E-2
2.908687193E0,-1.374999993E-4,5.499999970E-4,3.781250119E-2
2.911187730E0,9.624999948E-4,5.499999970E-4,3.987500072E-2
2.913688097E0,-1.374999993E-4,5.499999970E-4,3.987500072E-2
2.916188634E0,-1.374999993E-4,-5.499999970E-4,4.207500070E-2
2.918689020E0,-1.099999994E-3,5.499999970E-4,4.317500070E-2
2.921189328E0,-1.374999993E-4,-5.499999970E-4,4.413750023E-2
2.923689860E0,9.624999948E-4,1.649999991E-3,4.413750023E-2
2.926190246E0,2.062499989E-3,5.499999970E-4,4.523750022E-2
2.928690783E0,-1.374999993E-4,-5.499999970E-4,4.523750022E-2
2.931191169E0,9.624999948E-4,2.612499986E-3,4.523750022E-2
2.933691706E0,-1.099999994E-3,1.649999991E-3,4.743750021E-2
2.936192083E0,-1.374999993E-4,5.499999970E-4,4.839999974E-2
2.938692620E0,-1.374999993E-4,-5.499999970E-4,4.743750021E-2
2.941193006E0,2.062499989E-3,1.649999991E-3,5.059999973E-2
2.943693543E0,9.624999948E-4,5.499999970E-4,5.059999973E-2
2.946193948E0,-1.374999993E-4,-5.499999970E-4,5.156249925E-2
2.948694485E0,-1.374999993E-4,5.499999970E-4,5.266249925E-2
2.951194872E0,-1.374999993E-4,-1.649999991E-3,5.266249925E-2
2.953695408E0,-1.374999993E-4,1.649999991E-3,5.486249924E-2
2.956195703E0,2.062499989E-3,5.499999970E-4,5.582499877E-2
2.958696085E0,2.062499989E-3,1.649999991E-3,5.582499877E-2
2.961196624E0,9.624999948E-4,-1.649999991E-3,5.802499875E-2
2.963697010E0,-1.374999993E-4,-5.499999970E-4,6.008749828E-2
2.966197553E0,9.624999948E-4,5.499999970E-4,5.912499875E-2
2.968697940E0,9.624999948E-4,5.499999970E-4,6.008749828E-2
2.971198476E0,9.624999948E-4,-1.649999991E-3,6.118749827E-2
2.973698863E0,9.624999948E-4,-5.499999970E-4,6.338749826E-2
2.976199409E0,-1.374999993E-4,-5.499999970E-4,6.338749826E-2
2.978699719E0,-1.374999993E-4,5.499999970E-4,6.338749826E-2
2.981200101E0,9.624999948E-4,5.499999970E-4,6.118749827E-2
2.983700640E0,2.062499989E-3,-5.499999970E-4,6.228749827E-2
2.986201027E0,9.624999948E-4,-5.499999970E-4,6.008749828E-2
2.988701563E0,-1.099999994E-3,-2.612499986E-3,6.008749828E-2
2.991201950E0,9.624999948E-4,-5.499999970E-4,5.802499875E-2
2.993702486E0,-1.374999993E-4,5.499999970E-4,5.582499877E-2
2.996202877E0,2.062499989E-3,5.499999970E-4,5.156249925E-2
2.998703413E0,9.624999948E-4,-1.649999991E-3,4.949999973E-2
3.001203800E0,9.624999948E-4,-1.649999991E-3,4.413750023E-2
3.003704336E0,9.624999948E-4,-5.499999970E-4,4.207500070E-2
3.006204723E0,9.624999948E-4,5.499999970E-4,3.781250119E-2
3.008705274E0,9.624999948E-4,-1.649999991E-3,3.464999795E-2
3.011205661E0,-1.374999993E-4,-5.499999970E-4,3.135000169E-2
3.013706197E0,9.624999948E-4,-1.649999991E-3,2.928750031E-2
3.016206507E0,-1.374999993E-4,-5.499999970E-4,2.612499893E-2
3.018706895E0,2.062499989E-3,-5.499999970E-4,2.502499893E-2
3.021207433E0,9.624999948E-4,5.499999970E-4,2.186249942E-2
3.023707820E0,9.624999948E-4,-1.649999991E-3,1.966249943E-2
3.026208356E0,-1.374999993E-4,-1.649999991E-3,1.966249943E-2
3.028708728E0,2.062499989E-3,-5.499999970E-4,1.649999991E-2
3.031209264E0,9.624999948E-4,-5.499999970E-4,1.649999991E-2
3.033709651E0,9.624999948E-4,-1.649999991E-3,1.539999992E-2
3.036209959E0,-1.374999993E-4,-1.649999991E-3,1.333750039E-2
3.038710495E0,9.624999948E-4,5.499999970E-4,1.223750040E-2
3.041210896E0,9.624999948E-4,-5.499999970E-4,1.113750041E-2
3.043711432E0,-1.099999994E-3,-5.499999970E-4,9.074999951E-3
3.046211819E0,9.624999948E-4,5.499999970E-4,7.974999957E-3
3.048712355E0,-1.374999993E-4,-5.499999970E-4,3.712499980E-3
3.051212766E0,9.624999948E-4,-1.649999991E-3,3.712499980E-3
3.053713302E0,9.624999948E-4,5.499999970E-4,3.712499980E-3
3.056213689E0,-1.374999993E-4,-5.499999970E-4,2.612499986E-3
3.058714226E0,-1.374999993E-4,-5.499999970E-4,-5.499999970E-4
3.061214612E0,-1.374999993E-4,-1.649999991E-3,-5.499999970E-4
3.063715168E0,9.624999948E-4,-1.649999991E-3,-3.712499980E-3
3.066215554E0,9.624999948E-4,-5.499999970E-4,-2.612499986E-3
3.068715862E0,9.624999948E-4,-5.499999970E-4,-4.812499974E-3
3.071216475E0,9.624999948E-4,-1.649999991E-3,-3.712499980E-3
3.073716785E0,-1.374999993E-4,-1.649999991E-3,-3.712499980E-3
3.076217322E0,2.062499989E-3,-5.499999970E-4,-3.712499980E-3
3.078717708E0,2.062499989E-3,-1.649999991E-3,-5.774999969E-3
3.081218245E0,-1.374999993E-4,-5.499999970E-4,-5.774999969E-3
3.083718612E0,9.624999948E-4,-5.499999970E-4,-6.874999963E-3
3.086219149E0,-1.374999993E-4,-5.499999970E-4,-9.074999951E-3
3.088719535E0,-1.374999993E-4,-5.499999970E-4,-9.074999951E-3
3.091220072E0,2.062499989E-3,-1.649999991E-3,-1.113750041E-2
3.093720381E0,9.624999948E-4,-5.499999970E-4,-1.223750040E-2
3.096220768E0,9.624999948E-4,5.499999970E-4,-1.223750040E-2
3.098721307E0,-1.099999994E-3,-1.649999991E-3,-1.333750039E-2
3.101221693E0,9.624999948E-4,5.499999970E-4,-1.539999992E-2
3.103722230E0,-1.374999993E-4,-2.612499986E-3,-1.539999992E-2
3.106222626E0,-1.374999993E-4,-5.499999970E-4,-1.539999992E-2
3.108723163E0,9.624999948E-4,-1.649999991E-3,-1.649999991E-2
3.111223549E0,-1.374999993E-4,1.649999991E-3,-1.539999992E-2
3.113724086E0,-1.374999993E-4,5.499999970E-4,-1.539999992E-2
3.116224444E0,9.624999948E-4,2.612499986E-3,-1.966249943E-2
3.118724981E0,9.624999948E-4,-1.649999991E-3,-2.502499893E-2
3.121225368E0,9.624999948E-4,-5.499999970E-4,-3.038750030E-2
3.123725904E0,-1.374999993E-4,-1.649999991E-3,-3.561250120E-2
3.126226301E0,9.624999948E-4,5.499999970E-4,-3.987500072E-2
3.128726608E0,-1.374999993E-4,-1.649999991E-3,-4.207500070E-2
3.131227145E0,-1.374999993E-4,-5.499999970E-4,-4.729999974E-2
3.133727531E0,-1.099999994E-3,-5.499999970E-4,-5.059999973E-2
3.136228047E0,-1.374999993E-4,-1.649999991E-3,-5.156249925E-2
3.138728433E0,9.624999948E-4,5.499999970E-4,-5.692499876E-2
3.141228970E0,-1.374999993E-4,1.649999991E-3,-5.802499875E-2
3.143729357E0,-1.099999994E-3,-5.499999970E-4,-6.118749827E-2
3.146229893E0,-1.099999994E-3,5.499999970E-4,-6.324999779E-2
3.148730203E0,9.624999948E-4,5.499999970E-4,-6.544999778E-2
3.151230585E0,-1.099999994E-3,5.499999970E-4,-6.655000150E-2
3.153731124E0,-1.099999994E-3,-1.649999991E-3,-6.655000150E-2
3.156231505E0,-1.374999993E-4,-1.649999991E-3,-6.655000150E-2
3.158732042E0,-1.374999993E-4,-1.649999991E-3,-6.655000150E-2
3.161232429E0,-1.374999993E-4,-5.499999970E-4,-6.751249731E-2
3.163732965E0,9.624999948E-4,-1.649999991E-3,-6.655000150E-2
3.166233352E0,9.624999948E-4,1.649999991E-3,-6.324999779E-2
3.168733893E0,-1.099999994E-3,-1.649999991E-3,-6.324999779E-2
3.171234280E0,-1.374999993E-4,5.499999970E-4,-5.898749828E-2
3.173734816E0,2.062499989E-3,-5.499999970E-4,-5.802499875E-2
3.176235203E0,-1.374999993E-4,-5.499999970E-4,-5.692499876E-2
3.178735715E0,2.062499989E-3,-1.649999991E-3,-5.486249924E-2
3.181236102E0,-1.374999993E-4,-5.499999970E-4,-5.156249925E-2
3.183736410E0,9.624999948E-4,5.499999970E-4,-5.266249925E-2
3.186236946E0,9.624999948E-4,-5.499999970E-4,-5.059999973E-2
3.188737324E0,9.624999948E-4,5.499999970E-4,-4.729999974E-2
3.191237860E0,9.624999948E-4,5.499999970E-4,-4.633750021E-2
3.193738247E0,-1.374999993E-4,1.649999991E-3,-4.303750023E-2
3.196238783E0,-1.099999994E-3,-5.499999970E-4,-3.987500072E-2
3.198739170E0,-1.374999993E-4,5.499999970E-4,-3.781250119E-2
3.201239739E0,9.624999948E-4,5.499999970E-4,-3.561250120E-2
3.203740049E0,9.624999948E-4,-5.499999970E-4,-3.451250121E-2
3.206240432E0,9.624999948E-4,-5.499999970E-4,-3.135000169E-2
3.208740970E0,2.062499989E-3,-1.649999991E-3,-2.928750031E-2
3.211241357E0,9.624999948E-4,-5.499999970E-4,-2.818750031E-2
3.213741893E0,9.624999948E-4,-5.499999970E-4,-2.708750032E-2
3.216242280E0,9.624999948E-4,-5.499999970E-4,-2.392499894E-2
3.218742816E0,9.624999948E-4,-5.499999970E-4,-2.282499894E-2
3.221243189E0,9.624999948E-4,5.499999970E-4,-2.186249942E-2
3.223743725E0,-1.099999994E-3,-5.499999970E-4,-2.282499894E-2
3.226244112E0,-1.374999993E-4,-5.499999970E-4,-2.076249942E-2
3.228744648E0,9.624999948E-4,-5.499999970E-4,-1.966249943E-2
3.231245035E0,9.624999948E-4,-5.499999970E-4,-1.856249943E-2
3.233745543E0,9.624999948E-4,-1.649999991E-3,-1.856249943E-2
3.236245929E0,9.624999948E-4,5.499999970E-4,-1.759999990E-2
3.238746237E0,-1.374999993E-4,5.499999970E-4,-1.649999991E-2
3.241246773E0,9.624999948E-4,-1.649999991E-3,-1.333750039E-2
3.243747155E0,9.624999948E-4,-2.612499986E-3,-1.539999992E-2
3.246247691E0,9.624999948E-4,-1.649999991E-3,-1.113750041E-2
3.248748078E0,-1.374999993E-4,-5.499999970E-4,-1.223750040E-2
3.251248615E0,2.062499989E-3,1.649999991E-3,-1.223750040E-2
3.253749001E0,9.624999948E-4,-5.499999970E-4,-1.003750041E-2
3.256249552E0,-1.374999993E-4,-1.649999991E-3,-9.074999951E-3
3.258749861E0,9.624999948E-4,5.499999970E-4,-7.974999957E-3
3.261250475E0,2.062499989E-3,-5.499999970E-4,-6.874999963E-3
3.263750784E0,9.624999948E-4,5.499999970E-4,-5.774999969E-3
3.266251374E0,2.062499989E-3,-1.649999991E-3,-3.712499980E-3
3.268751683E0,2.062499989E-3,-5.499999970E-4,-2.612499986E-3
3.271252068E0,-1.374999993E-4,-1.649999991E-3,-1.649999991E-3
3.273752605E0,-1.374999993E-4,-5.499999970E-4,-1.649999991E-3
3.276252991E0,9.624999948E-4,-1.649999991E-3,1.649999991E-3
3.278753519E0,-1.374999993E-4,-5.499999970E-4,1.649999991E-3
3.281253905E0,9.624999948E-4,-5.499999970E-4,2.612499986E-3
3.283754442E0,-1.374999993E-4,-5.499999970E-4,4.812499974E-3
3.286254828E0,-1.374999993E-4,-5.499999970E-4,5.912499968E-3
3.288755389E0,9.624999948E-4,1.649999991E-3,6.874999963E-3
3.291255775E0,9.624999948E-4,-1.649999991E-3,9.074999951E-3
3.293756312E0,-1.099999994E-3,5.499999970E-4,7.974999957E-3
3.296256622E0,2.062499989E-3,-2.612499986E-3,9.074999951E-3
3.298756989E0,9.624999948E-4,-5.499999970E-4,1.017499994E-2
3.301257528E0,-1.374999993E-4,1.649999991E-3,1.113750041E-2
3.303757914E0,-1.374999993E-4,-5.499999970E-4,1.333750039E-2
3.306258451E0,9.624999948E-4,-5.499999970E-4,1.443750039E-2
3.308758862E0,9.624999948E-4,5.499999970E-4,1.443750039E-2
3.311259399E0,-1.374999993E-4,-5.499999970E-4,1.539999992E-2
3.313759786E0,9.624999948E-4,-5.499999970E-4,1.443750039E-2
3.316260093E0,-1.374999993E-4,-5.499999970E-4,1.649999991E-2
3.318760697E0,9.624999948E-4,-1.649999991E-3,1.649999991E-2
3.321261006E0,2.062499989E-3,5.499999970E-4,1.539999992E-2
3.323761620E0,3.162499983E-3,-5.499999970E-4,1.649999991E-2
3.326261929E0,9.624999948E-4,-5.499999970E-4,1.539999992E-2
3.328762548E0,-1.374999993E-4,-1.649999991E-3,1.443750039E-2
3.331262857E0,-1.374999993E-4,5.499999970E-4,1.443750039E-2
3.333763394E0,2.062499989E-3,-5.499999970E-4,1.223750040E-2
3.336263781E0,9.624999948E-4,5.499999970E-4,1.223750040E-2
3.338764317E0,9.624999948E-4,5.499999970E-4,1.223750040E-2
3.341264685E0,9.624999948E-4,-5.499999970E-4,1.113750041E-2
3.343765221E0,2.062499989E-3,-5.499999970E-4,1.113750041E-2
3.346265608E0,9.624999948E-4,-1.649999991E-3,1.017499994E-2
3.348766144E0,9.624999948E-4,-5.499999970E-4,1.017499994E-2
3.351266454E0,9.624999948E-4,5.499999970E-4,9.074999951E-3
3.353766837E0,9.624999948E-4,-5.499999970E-4,1.017499994E-2
3.356267375E0,2.062499989E-3,-1.649999991E-3,9.074999951E-3
3.358767762E0,-1.374999993E-4,-5.499999970E-4,6.874999963E-3
3.361268298E0,-1.374999993E-4,-1.649999991E-3,6.874999963E-3
3.363768685E0,2.062499989E-3,5.499999970E-4,7.974999957E-3
3.366269221E0,-1.374999993E-4,5.499999970E-4,6.874999963E-3
3.368769608E0,-1.374999993E-4,5.499999970E-4,3.712499980E-3
3.371270134E0,-1.374999993E-4,5.499999970E-4,4.812499974E-3
3.373770521E0,9.624999948E-4,-5.499999970E-4,2.612499986E-3
3.376271057E0,-1.374999993E-4,-5.499999970E-4,2.612499986E-3
3.378771367E0,-1.374999993E-4,-5.499999970E-4,5.499999970E-4
3.381271765E0,-1.374999993E-4,-5.499999970E-4,5.499999970E-4
3.383772303E0,-1.374999993E-4,-2.612499986E-3,5.499999970E-4
3.386272919E0,-1.374999993E-4,-5.499999970E-4,-1.649999991E-3
3.388773228E0,2.062499989E-3,-5.499999970E-4,-1.649999991E-3
3.391273613E0,2.062499989E-3,1.649999991E-3,-3.712499980E-3
3.393774163E0,-1.099999994E-3,5.499999970E-4,-2.612499986E-3
3.396274550E0,9.624999948E-4,-1.649999991E-3,-2.612499986E-3
3.398775086E0,-1.374999993E-4,-1.649999991E-3,-1.649999991E-3
3.401275473E0,9.624999948E-4,-5.499999970E-4,-3.712499980E-3
3.403776010E0,-1.374999993E-4,-5.499999970E-4,-2.612499986E-3
3.406276319E0,-1.374999993E-4,-1.649999991E-3,-3.712499980E-3
3.408776702E0,-1.374999993E-4,-1.649999991E-3,-1.649999991E-3
3.411277240E0,9.624999948E-4,5.499999970E-4,-1.649999991E-3
3.413777623E0,9.624999948E-4,-1.649999991E-3,-1.649999991E-3
3.416278159E0,9.624999948E-4,-1.649999991E-3,5.499999970E-4
3.418778546E0,-1.374999993E-4,-5.499999970E-4,-5.499999970E-4
3.421279082E0,-1.374999993E-4,-5.499999970E-4,5.499999970E-4
3.423779469E0,9.624999948E-4,-1.649999991E-3,-5.499999970E-4
3.426280006E0,2.062499989E-3,5.499999970E-4,1.649999991E-3
3.428780392E0,2.062499989E-3,5.499999970E-4,2.612499986E-3
3.431280929E0,-1.374999993E-4,-5.499999970E-4,5.499999970E-4
3.433781314E0,9.624999948E-4,5.499999970E-4,5.499999970E-4
3.436281851E0,9.624999948E-4,-5.499999970E-4,1.649999991E-3
3.438782237E0,9.624999948E-4,5.499999970E-4,-5.499999970E-4
3.441282545E0,-1.374999993E-4,-5.499999970E-4,5.499999970E-4
3.443783082E0,-1.374999993E-4,-5.499999970E-4,5.499999970E-4
3.446283483E0,-1.099999994E-3,5.499999970E-4,-5.499999970E-4
3.448784020E0,-1.374999993E-4,-5.499999970E-4,-1.649999991E-3
3.451284406E0,9.624999948E-4,5.499999970E-4,-3.712499980E-3
3.453784943E0,-1.374999993E-4,-5.499999970E-4,-2.612499986E-3
3.456285314E0,9.624999948E-4,-5.499999970E-4,-5.499999970E-4
3.458785851E0,-1.099999994E-3,-1.649999991E-3,-1.649999991E-3
3.461286237E0,9.624999948E-4,-5.499999970E-4,-1.649999991E-3
3.463786545E0,-1.099999994E-3,-5.499999970E-4,-2.612499986E-3
3.466287082E0,9.624999948E-4,1.649999991E-3,-3.712499980E-3
3.468787468E0,9.624999948E-4,-5.499999970E-4,-2.612499986E-3
3.471288005E0,-1.374999993E-4,-5.499999970E-4,-5.499999970E-4
3.473788391E0,9.624999948E-4,-5.499999970E-4,1.649999991E-3
3.476288928E0,2.062499989E-3,5.499999970E-4,4.812499974E-3
3.478789314E0,9.624999948E-4,-5.499999970E-4,4.812499974E-3
3.481289851E0,-1.374999993E-4,2.612499986E-3,5.912499968E-3
3.483790237E0,9.624999948E-4,1.649999991E-3,7.974999957E-3
3.486290774E0,-1.374999993E-4,-1.649999991E-3,1.113750041E-2
3.488791156E0,-1.374999993E-4,5.499999970E-4,1.333750039E-2
3.491291692E0,2.062499989E-3,5.499999970E-4,1.223750040E-2
3.493792079E0,9.624999948E-4,5.499999970E-4,1.539999992E-2
3.496292615E0,-1.374999993E-4,-5.499999970E-4,1.649999991E-2
3.498792921E0,-1.374999993E-4,-1.649999991E-3,1.539999992E-2
3.501293303E0,9.624999948E-4,-1.649999991E-3,1.759999990E-2
3.503793842E0,2.062499989E-3,5.499999970E-4,1.443750039E-2
3.506294229E0,9.624999948E-4,-5.499999970E-4,1.223750040E-2
3.508794765E0,9.624999948E-4,-5.499999970E-4,1.223750040E-2
3.511295166E0,-1.099999994E-3,5.499999970E-4,1.017499994E-2
3.513795702E0,-1.374999993E-4,-1.649999991E-3,9.074999951E-3
3.516296089E0,9.624999948E-4,1.649999991E-3,7.974999957E-3
3.518796396E0,-1.374999993E-4,5.499999970E-4,5.912499968E-3
3.521296962E0,2.062499989E-3,5.499999970E-4,3.712499980E-3
3.523797348E0,-1.099999994E-3,5.499999970E-4,2.612499986E-3
3.526297885E0,-1.099999994E-3,-5.499999970E-4,5.499999970E-4
3.528798272E0,9.624999948E-4,-5.499999970E-4,-2.612499986E-3
3.531298817E0,-1.374999993E-4,5.499999970E-4,-4.812499974E-3
3.533799204E0,-1.374999993E-4,5.499999970E-4,-4.812499974E-3
3.536299740E0,-1.374999993E-4,-5.499999970E-4,-7.974999957E-3
3.538800127E0,-1.374999993E-4,1.649999991E-3,-6.874999963E-3
3.541300663E0,9.624999948E-4,5.499999970E-4,-1.003750041E-2
3.543801065E0,-1.374999993E-4,5.499999970E-4,-9.074999951E-3
3.546301601E0,-1.374999993E-4,-1.649999991E-3,-1.223750040E-2
3.548801988E0,-1.374999993E-4,-5.499999970E-4,-1.003750041E-2
3.551302524E0,9.624999948E-4,-5.499999970E-4,-1.113750041E-2
3.553802911E0,-1.099999994E-3,-5.499999970E-4,-1.333750039E-2
3.556303219E0,-1.374999993E-4,5.499999970E-4,-1.429999992E-2
3.558803755E0,-1.374999993E-4,-5.499999970E-4,-1.333750039E-2
3.561304142E0,-1.374999993E-4,5.499999970E-4,-1.429999992E-2
3.563804673E0,9.624999948E-4,-5.499999970E-4,-1.429999992E-2
3.566305060E0,9.624999948E-4,5.499999970E-4,-1.539999992E-2
3.568805596E0,9.624999948E-4,-5.499999970E-4,-1.429999992E-2
3.571305983E0,-1.374999993E-4,-5.499999970E-4,-1.539999992E-2
3.573806305E0,-1.099999994E-3,-5.499999970E-4,-1.539999992E-2
3.576306841E0,9.624999948E-4,-5.499999970E-4,-1.649999991E-2
3.578807228E0,9.624999948E-4,-5.499999970E-4,-1.649999991E-2
3.581307783E0,9.624999948E-4,5.499999970E-4,-1.649999991E-2
3.583808170E0,-1.374999993E-4,-5.499999970E-4,-1.649999991E-2
3.586308706E0,-1.374999993E-4,5.499999970E-4,-1.539999992E-2
3.588809093E0,9.624999948E-4,5.499999970E-4,-1.649999991E-2
3.591309629E0,2.062499989E-3,-5.499999970E-4,-1.649999991E-2
3.593810002E0,9.624999948E-4,1.649999991E-3,-1.649999991E-2
3.596310539E0,-1.374999993E-4,-1.649999991E-3,-1.539999992E-2
3.598810925E0,-1.374999993E-4,1.649999991E-3,-1.649999991E-2
3.601311462E0,-1.374999993E-4,-1.649999991E-3,-1.649999991E-2
3.603811858E0,9.624999948E-4,5.499999970E-4,-1.759999990E-2
3.606312395E0,2.062499989E-3,5.499999970E-4,-1.759999990E-2
3.608812781E0,-1.374999993E-4,-5.499999970E-4,-1.649999991E-2
3.611313089E0,2.062499989E-3,-5.499999970E-4,-1.759999990E-2
3.613813610E0,-1.374999993E-4,5.499999970E-4,-1.759999990E-2
3.616313997E0,9.624999948E-4,5.499999970E-4,-1.759999990E-2
3.618814534E0,9.624999948E-4,5.499999970E-4,-1.649999991E-2
3.621314920E0,9.624999948E-4,1.649999991E-3,-1.856249943E-2
3.623815448E0,9.624999948E-4,-5.499999970E-4,-1.759999990E-2
3.626315834E0,2.062499989E-3,-5.499999970E-4,-1.856249943E-2
3.628816371E0,9.624999948E-4,5.499999970E-4,-1.759999990E-2
3.631316757E0,9.624999948E-4,-5.499999970E-4,-1.649999991E-2
3.633817065E0,-1.374999993E-4,5.499999970E-4,-1.856249943E-2
3.636317692E0,9.624999948E-4,-2.612499986E-3,-1.759999990E-2
3.638818002E0,9.624999948E-4,-5.499999970E-4,-1.759999990E-2
3.641318616E0,2.062499989E-3,1.649999991E-3,-1.856249943E-2
3.643818925E0,2.062499989E-3,5.499999970E-4,-2.076249942E-2
3.646319457E0,-1.374999993E-4,-2.612499986E-3,-1.856249943E-2
3.648819843E0,-1.374999993E-4,5.499999970E-4,-2.076249942E-2
3.651320380E0,9.624999948E-4,-5.499999970E-4,-1.966249943E-2
3.653820766E0,-1.374999993E-4,-5.499999970E-4,-1.966249943E-2
3.656321317E0,-1.374999993E-4,-5.499999970E-4,-2.076249942E-2
3.658821704E0,2.062499989E-3,5.499999970E-4,-2.186249942E-2
3.661322240E0,-1.099999994E-3,-5.499999970E-4,-2.186249942E-2
3.663822627E0,9.624999948E-4,-5.499999970E-4,-2.392499894E-2
3.666322934E0,9.624999948E-4,1.649999991E-3,-2.282499894E-2
3.668823480E0,9.624999948E-4,-5.499999970E-4,-2.502499893E-2
3.671323866E0,-1.099999994E-3,-5.499999970E-4,-2.708750032E-2
3.673824403E0,2.062499989E-3,-1.649999991E-3,-2.708750032E-2
3.676324789E0,9.624999948E-4,-5.499999970E-4,-2.708750032E-2
3.678825326E0,9.624999948E-4,-5.499999970E-4,-2.612499893E-2
3.681325713E0,9.624999948E-4,2.612499986E-3,-2.708750032E-2
3.683826249E0,9.624999948E-4,5.499999970E-4,-2.708750032E-2
3.686326559E0,-1.374999993E-4,1.649999991E-3,-2.502499893E-2
3.688827153E0,-1.099999994E-3,1.649999991E-3,-2.708750032E-2
3.691327540E0,9.624999948E-4,5.499999970E-4,-2.612499893E-2
3.693828076E0,2.062499989E-3,1.649999991E-3,-2.502499893E-2
3.696328386E0,2.062499989E-3,-5.499999970E-4,-2.392499894E-2
3.698828769E0,9.624999948E-4,-1.649999991E-3,-2.282499894E-2
3.701329307E0,9.624999948E-4,-1.649999991E-3,-2.282499894E-2
3.703829694E0,9.624999948E-4,1.649999991E-3,-2.282499894E-2
3.706330230E0,-1.374999993E-4,5.499999970E-4,-2.076249942E-2
3.708830594E0,9.624999948E-4,-5.499999970E-4,-2.076249942E-2
3.711331130E0,-1.374999993E-4,-5.499999970E-4,-1.966249943E-2
3.713831517E0,-1.374999993E-4,-5.499999970E-4,-1.856249943E-2
3.716332053E0,2.062499989E-3,1.649999991E-3,-1.759999990E-2
3.718832363E0,-1.374999993E-4,-5.499999970E-4,-1.539999992E-2
3.721332731E0,9.624999948E-4,-5.499999970E-4,-1.539999992E-2
3.723833269E0,9.624999948E-4,-1.649999991E-3,-1.333750039E-2
3.726333656E0,9.624999948E-4,5.499999970E-4,-1.223750040E-2
3.728834192E0,9.624999948E-4,-5.499999970E-4,-1.223750040E-2
3.731334579E0,-1.374999993E-4,5.499999970E-4,-6.874999963E-3
3.733835115E0,-1.374999993E-4,-5.499999970E-4,-6.874999963E-3
3.736335502E0,9.624999948E-4,-1.649999991E-3,-2.612499986E-3
3.738835810E0,-1.374999993E-4,-5.499999970E-4,-3.712499980E-3
3.741336394E0,-1.374999993E-4,1.649999991E-3,-1.649999991E-3
3.743836704E0,9.624999948E-4,-1.649999991E-3,-5.499999970E-4
3.746337317E0,9.624999948E-4,5.499999970E-4,5.499999970E-4
3.748837627E0,-1.374999993E-4,-1.649999991E-3,4.812499974E-3
3.751338240E0,-1.374999993E-4,-5.499999970E-4,4.812499974E-3
3.753838526E0,-1.374999993E-4,1.649999991E-3,4.812499974E-3
3.756339062E0,9.624999948E-4,-5.499999970E-4,7.974999957E-3
3.758839449E0,-1.374999993E-4,-5.499999970E-4,1.017499994E-2
3.761339985E0,9.624999948E-4,-2.612499986E-3,9.074999951E-3
3.763840382E0,-1.374999993E-4,5.499999970E-4,1.017499994E-2
3.766340918E0,9.624999948E-4,5.499999970E-4,1.333750039E-2
3.768841305E0,-1.374999993E-4,-1.649999991E-3,1.113750041E-2
3.771341842E0,-1.374999993E-4,-1.649999991E-3,1.443750039E-2
3.773842156E0,9.624999948E-4,-5.499999970E-4,1.539999992E-2
3.776342770E0,-1.099999994E-3,-5.499999970E-4,1.539999992E-2
3.778843079E0,9.624999948E-4,5.499999970E-4,1.759999990E-2
3.781343464E0,9.624999948E-4,-5.499999970E-4,1.869999990E-2
3.783844014E0,-1.374999993E-4,5.499999970E-4,1.869999990E-2
3.786344401E0,9.624999948E-4,-5.499999970E-4,1.966249943E-2
3.788844938E0,-1.374999993E-4,-1.649999991E-3,2.186249942E-2
3.791345324E0,9.624999948E-4,-5.499999970E-4,2.186249942E-2
3.793845871E0,-1.374999993E-4,-1.649999991E-3,2.282499894E-2
3.796346257E0,9.624999948E-4,-5.499999970E-4,2.392499894E-2
3.798846794E0,-1.374999993E-4,-1.649999991E-3,2.392499894E-2
3.801347180E0,9.624999948E-4,5.499999970E-4,2.502499893E-2
3.803847717E0,-1.374999993E-4,5.499999970E-4,2.186249942E-2
3.806348011E0,9.624999948E-4,-5.499999970E-4,2.282499894E-2
3.808848394E0,-1.099999994E-3,-2.612499986E-3,2.282499894E-2
3.811348933E0,9.624999948E-4,5.499999970E-4,2.392499894E-2
3.813849319E0,2.062499989E-3,-5.499999970E-4,2.282499894E-2
3.816349851E0,-1.374999993E-4,-1.649999991E-3,2.186249942E-2
3.818850237E0,-1.374999993E-4,-5.499999970E-4,2.186249942E-2
3.821350774E0,9.624999948E-4,-5.499999970E-4,1.966249943E-2
3.823851160E0,-1.374999993E-4,-1.649999991E-3,1.869999990E-2
3.826351468E0,9.624999948E-4,-5.499999970E-4,1.759999990E-2
3.828851986E0,-1.374999993E-4,-1.649999991E-3,1.759999990E-2
3.831352372E0,9.624999948E-4,-5.499999970E-4,1.759999990E-2
3.833852909E0,-1.374999993E-4,-5.499999970E-4,1.539999992E-2
3.836353295E0,-1.374999993E-4,-1.649999991E-3,1.443750039E-2
3.838853842E0,9.624999948E-4,-5.499999970E-4,1.333750039E-2
3.841354228E0,9.624999948E-4,5.499999970E-4,1.333750039E-2
3.843854765E0,-1.374999993E-4,5.499999970E-4,1.113750041E-2
3.846355151E0,-1.374999993E-4,5.499999970E-4,9.074999951E-3
3.848855688E0,-1.099999994E-3,-5.499999970E-4,9.074999951E-3
3.851356075E0,-1.099999994E-3,-2.612499986E-3,1.017499994E-2
3.853856611E0,9.624999948E-4,5.499999970E-4,1.017499994E-2
3.856356998E0,-1.374999993E-4,-5.499999970E-4,7.974999957E-3
3.858857534E0,9.624999948E-4,-5.499999970E-4,9.074999951E-3
3.861357867E0,-1.374999993E-4,-5.499999970E-4,9.074999951E-3
3.863858249E0,-1.374999993E-4,5.499999970E-4,6.874999963E-3
3.866358788E0,9.624999948E-4,-5.499999970E-4,7.974999957E-3
3.868859174E0,9.624999948E-4,-5.499999970E-4,6.874999963E-3
3.871359706E0,-1.374999993E-4,-5.499999970E-4,5.912499968E-3
3.873860093E0,9.624999948E-4,-1.649999991E-3,4.812499974E-3
3.876360629E0,-1.374999993E-4,1.649999991E-3,5.912499968E-3
3.878861016E0,9.624999948E-4,-1.649999991E-3,4.812499974E-3
3.881361562E0,-1.374999993E-4,-1.649999991E-3,6.874999963E-3
3.883861872E0,2.062499989E-3,5.499999970E-4,3.712499980E-3
3.886362254E0,-1.374999993E-4,5.499999970E-4,3.712499980E-3
3.888862793E0,-1.374999993E-4,-5.499999970E-4,3.712499980E-3
3.891363180E0,-1.374999993E-4,5.499999970E-4,4.812499974E-3
3.893863716E0,9.624999948E-4,-5.499999970E-4,3.712499980E-3
3.896364103E0,-1.374999993E-4,5.499999970E-4,4.812499974E-3
3.898864639E0,-1.099999994E-3,-1.649999991E-3,2.612499986E-3
3.901365026E0,2.062499989E-3,-5.499999970E-4,4.812499974E-3
3.903865552E0,-1.374999993E-4,5.499999970E-4,2.612499986E-3
3.906365939E0,9.624999948E-4,-5.499999970E-4,1.649999991E-3
3.908866475E0,-1.374999993E-4,5.499999970E-4,-5.499999970E-4
3.911366862E0,2.062499989E-3,-1.649999991E-3,-2.612499986E-3
3.913867412E0,2.062499989E-3,-5.499999970E-4,-2.612499986E-3
3.916367799E0,9.624999948E-4,-2.612499986E-3,-4.812499974E-3
3.918868107E0,9.624999948E-4,5.499999970E-4,-3.712499980E-3
3.921368643E0,-1.374999993E-4,-5.499999970E-4,-5.774999969E-3
3.923869045E0,-1.374999993E-4,-5.499999970E-4,-7.974999957E-3
3.926369581E0,-1.374999993E-4,-5.499999970E-4,-7.974999957E-3
3.928869968E0,-1.374999993E-4,1.649999991E-3,-1.223750040E-2
3.931370504E0,9.624999948E-4,-1.649999991E-3,-1.223750040E-2
3.933870905E0,9.624999948E-4,5.499999970E-4,-1.539999992E-2
3.936371441E0,-1.374999993E-4,1.649999991E-3,-1.649999991E-2
3.938871828E0,-1.099999994E-3,-5.499999970E-4,-1.649999991E-2
3.941372364E0,-1.374999993E-4,5.499999970E-4,-1.856249943E-2
3.943872761E0,-1.099999994E-3,-5.499999970E-4,-1.966249943E-2
3.946373298E0,-1.374999993E-4,2.612499986E-3,-2.186249942E-2
3.948873684E0,-1.374999993E-4,5.499999970E-4,-2.186249942E-2
3.951373992E0,-1.374999993E-4,5.499999970E-4,-2.392499894E-2
3.953874528E0,-1.099999994E-3,5.499999970E-4,-2.502499893E-2
3.956374910E0,9.624999948E-4,-5.499999970E-4,-2.502499893E-2
3.958875446E0,9.624999948E-4,1.649999991E-3,-2.612499893E-2
3.961375833E0,9.624999948E-4,-5.499999970E-4,-2.708750032E-2
3.963876370E0,9.624999948E-4,1.649999991E-3,-2.818750031E-2
3.966376770E0,2.062499989E-3,5.499999970E-4,-2.818750031E-2
3.968877307E0,2.062499989E-3,-5.499999970E-4,-2.708750032E-2
3.971377616E0,9.624999948E-4,5.499999970E-4,-2.818750031E-2
3.973877999E0,-1.374999993E-4,1.649999991E-3,-2.928750031E-2
3.976378542E0,9.624999948E-4,2.612499986E-3,-2.818750031E-2
3.978878929E0,9.624999948E-4,-1.649999991E-3,-2.708750032E-2
3.981379466E0,-1.374999993E-4,5.499999970E-4,-2.612499893E-2
3.983879852E0,-1.374999993E-4,5.499999970E-4,-2.708750032E-2
3.986380384E0,2.062499989E-3,5.499999970E-4,-2.392499894E-2
3.988880770E0,-1.099999994E-3,5.499999970E-4,-2.282499894E-2
3.991381307E0,-1.099999994E-3,5.499999970E-4,-1.966249943E-2
3.993881616E0,-1.374999993E-4,5.499999970E-4,-1.966249943E-2
3.996382230E0,9.624999948E-4,-1.649999991E-3,-1.759999990E-2
3.998882626E0,-1.374999993E-4,-5.499999970E-4,-1.649999991E-2
4.001383163E0,9.624999948E-4,-5.499999970E-4,-1.539999992E-2
4.003883549E0,-1.374999993E-4,-1.649999991E-3,-1.113750041E-2
4.006384086E0,9.624999948E-4,-5.499999970E-4,-1.113750041E-2
4.008884391E0,-1.374999993E-4,1.649999991E-3,-1.003750041E-2
4.011384773E0,9.624999948E-4,1.649999991E-3,-6.874999963E-3
4.013885312E0,9.624999948E-4,-5.499999970E-4,-5.774999969E-3
4.016385698E0,9.624999948E-4,-5.499999970E-4,-1.649999991E-3
4.018886211E0,9.624999948E-4,-1.649999991E-3,-5.499999970E-4
4.021386597E0,9.624999948E-4,-5.499999970E-4,5.499999970E-4
4.023886905E0,9.624999948E-4,5.499999970E-4,5.499999970E-4
4.026387519E0,-1.374999993E-4,1.649999991E-3,2.612499986E-3
4.028887823E0,-1.374999993E-4,-5.499999970E-4,3.712499980E-3
4.031388437E0,2.062499989E-3,-5.499999970E-4,3.712499980E-3
4.033888746E0,-1.374999993E-4,-5.499999970E-4,4.812499974E-3
4.036389283E0,9.624999948E-4,5.499999970E-4,5.912499968E-3
4.038889679E0,-1.374999993E-4,-5.499999970E-4,5.912499968E-3
4.041390216E0,9.624999948E-4,-5.499999970E-4,6.874999963E-3
4.043890603E0,-1.374999993E-4,-1.649999991E-3,5.912499968E-3
4.046391139E0,-1.374999993E-4,-5.499999970E-4,9.074999951E-3
4.048891511E0,9.624999948E-4,5.499999970E-4,7.974999957E-3
4.051392047E0,-1.099999994E-3,-1.649999991E-3,6.874999963E-3
4.053892434E0,9.624999948E-4,-5.499999970E-4,7.974999957E-3
4.056392741E0,2.062499989E-3,-1.649999991E-3,7.974999957E-3
4.058893278E0,9.624999948E-4,-1.649999991E-3,7.974999957E-3
4.061393664E0,2.062499989E-3,5.499999970E-4,7.974999957E-3
4.063894201E0,9.624999948E-4,5.499999970E-4,6.874999963E-3
4.066394588E0,-1.374999993E-4,-1.649999991E-3,9.074999951E-3
4.068895129E0,-1.374999993E-4,-5.499999970E-4,7.974999957E-3
4.071395516E0,-1.374999993E-4,-1.649999991E-3,9.074999951E-3
4.073896052E0,-1.374999993E-4,5.499999970E-4,7.974999957E-3
4.076396362E0,9.624999948E-4,-1.649999991E-3,7.974999957E-3
4.078896975E0,-1.099999994E-3,-5.499999970E-4,1.017499994E-2
4.081397295E0,-1.374999993E-4,-5.499999970E-4,1.017499994E-2
4.083897908E0,-1.099999994E-3,5.499999970E-4,1.113750041E-2
4.086398218E0,-1.374999993E-4,1.649999991E-3,1.113750041E-2
4.088898831E0,-1.374999993E-4,-5.499999970E-4,1.113750041E-2
4.091399131E0,-1.374999993E-4,-5.499999970E-4,1.223750040E-2
4.093899516E0,-1.374999993E-4,5.499999970E-4,1.333750039E-2
4.096400052E0,-1.099999994E-3,-5.499999970E-4,1.443750039E-2
4.098900439E0,-1.374999993E-4,-5.499999970E-4,1.539999992E-2
4.101400975E0,-1.374999993E-4,1.649999991E-3,1.539999992E-2
4.103901362E0,-1.374999993E-4,-5.499999970E-4,1.649999991E-2
4.106401898E0,-1.099999994E-3,-5.499999970E-4,1.759999990E-2
4.108902285E0,9.624999948E-4,5.499999970E-4,1.759999990E-2
4.111402797E0,9.624999948E-4,5.499999970E-4,2.076249942E-2
4.113903107E0,2.062499989E-3,-5.499999970E-4,1.966249943E-2
4.116403490E0,-1.374999993E-4,-1.649999991E-3,1.966249943E-2
4.118904028E0,9.624999948E-4,-1.649999991E-3,2.186249942E-2
4.121404415E0,-1.374999993E-4,-5.499999970E-4,2.186249942E-2
4.123904956E0,-1.374999993E-4,5.499999970E-4,2.076249942E-2
4.126405343E0,9.624999948E-4,-5.499999970E-4,2.282499894E-2
4.128905879E0,-1.374999993E-4,-5.499999970E-4,2.186249942E-2
4.131406266E0,-1.374999993E-4,-1.649999991E-3,2.282499894E-2
4.133906559E0,9.624999948E-4,-5.499999970E-4,2.186249942E-2
4.136407172E0,-1.374999993E-4,-5.499999970E-4,2.186249942E-2
4.138907482E0,-1.374999993E-4,5.499999970E-4,2.186249942E-2
4.141408018E0,2.062499989E-3,-2.612499986E-3,2.186249942E-2
4.143908405E0,-1.374999993E-4,-5.499999970E-4,2.076249942E-2
4.146408941E0,9.624999948E-4,-5.499999970E-4,2.076249942E-2
4.148909328E0,-1.099999994E-3,-5.499999970E-4,1.966249943E-2
4.151409864E0,-1.374999993E-4,-1.649999991E-3,1.869999990E-2
4.153910256E0,-1.374999993E-4,-1.649999991E-3,1.539999992E-2
4.156410793E0,-1.374999993E-4,-5.499999970E-4,1.649999991E-2
4.158911179E0,9.624999948E-4,-5.499999970E-4,1.333750039E-2
4.161411716E0,9.624999948E-4,1.649999991E-3,1.223750040E-2
4.163912102E0,-1.099999994E-3,-1.649999991E-3,1.113750041E-2
4.166412420E0,-1.099999994E-3,-5.499999970E-4,6.874999963E-3
4.168912956E0,9.624999948E-4,-5.499999970E-4,4.812499974E-3
4.171413343E0,-1.374999993E-4,-5.499999970E-4,3.712499980E-3
4.173913880E0,2.062499989E-3,5.499999970E-4,5.499999970E-4
4.176414266E0,-1.374999993E-4,5.499999970E-4,-5.499999970E-4
4.178914803E0,-1.374999993E-4,5.499999970E-4,-2.612499986E-3
4.181415189E0,-1.374999993E-4,5.499999970E-4,-2.612499986E-3
4.183915726E0,-1.374999993E-4,5.499999970E-4,-5.774999969E-3
4.186416059E0,9.624999948E-4,5.499999970E-4,-9.074999951E-3
4.188916673E0,-1.374999993E-4,5.499999970E-4,-1.223750040E-2
4.191416982E0,2.062499989E-3,-1.649999991E-3,-1.223750040E-2
4.193917596E0,-1.099999994E-3,5.499999970E-4,-1.429999992E-2
4.196417886E0,-1.374999993E-4,-5.499999970E-4,-1.539999992E-2
4.198918499E0,-1.099999994E-3,5.499999970E-4,-1.856249943E-2
4.201418809E0,9.624999948E-4,5.499999970E-4,-2.076249942E-2
4.203919193E0,-1.374999993E-4,-5.499999970E-4,-2.076249942E-2
4.206419730E0,9.624999948E-4,1.649999991E-3,-2.076249942E-2
4.208920102E0,9.624999948E-4,-5.499999970E-4,-2.282499894E-2
4.211420639E0,-1.374999993E-4,1.649999991E-3,-2.282499894E-2
4.213921025E0,-1.374999993E-4,5.499999970E-4,-2.502499893E-2
4.216421562E0,9.624999948E-4,1.649999991E-3,-2.392499894E-2
4.218921958E0,-1.374999993E-4,2.612499986E-3,-2.612499893E-2
4.221422265E0,-1.374999993E-4,-5.499999970E-4,-2.708750032E-2
4.223922802E0,9.624999948E-4,1.649999991E-3,-2.612499893E-2
4.226423188E0,2.062499989E-3,-5.499999970E-4,-2.392499894E-2
4.228923725E0,9.624999948E-4,5.499999970E-4,-2.392499894E-2
4.231424111E0,9.624999948E-4,-5.499999970E-4,-2.186249942E-2
4.233924648E0,-1.374999993E-4,5.499999970E-4,-2.392499894E-2
4.236425034E0,-1.374999993E-4,5.499999970E-4,-2.282499894E-2
4.238925571E0,-1.374999993E-4,5.499999970E-4,-2.076249942E-2
4.241425987E0,9.624999948E-4,-5.499999970E-4,-1.966249943E-2
4.243926523E0,-1.374999993E-4,5.499999970E-4,-1.966249943E-2
4.246426910E0,-1.374999993E-4,1.649999991E-3,-1.649999991E-2
4.248927446E0,-1.099999994E-3,5.499999970E-4,-1.333750039E-2
4.251427833E0,-1.374999993E-4,5.499999970E-4,-1.333750039E-2
4.253928379E0,-1.374999993E-4,-5.499999970E-4,-1.003750041E-2
4.256428689E0,9.624999948E-4,-5.499999970E-4,-1.003750041E-2
4.258929072E0,-1.374999993E-4,5.499999970E-4,-6.874999963E-3
4.261429610E0,-1.374999993E-4,1.649999991E-3,-5.774999969E-3
4.263929997E0,-1.099999994E-3,1.649999991E-3,-2.612499986E-3
4.266430533E0,-1.099999994E-3,-1.649999991E-3,-2.612499986E-3
4.268930920E0,9.624999948E-4,5.499999970E-4,-2.612499986E-3
4.271431456E0,9.624999948E-4,5.499999970E-4,5.499999970E-4
4.273931756E0,9.624999948E-4,5.499999970E-4,2.612499986E-3
4.276432139E0,2.062499989E-3,5.499999970E-4,4.812499974E-3
4.278932677E0,-1.099999994E-3,5.499999970E-4,3.712499980E-3
4.281433064E0,9.624999948E-4,-5.499999970E-4,3.712499980E-3
4.283933624E0,-1.374999993E-4,-1.649999991E-3,3.712499980E-3
4.286434011E0,-1.374999993E-4,5.499999970E-4,4.812499974E-3
4.288934547E0,2.062499989E-3,5.499999970E-4,3.712499980E-3
4.291434934E0,-1.374999993E-4,-5.499999970E-4,2.612499986E-3
4.293935470E0,9.624999948E-4,-1.649999991E-3,1.649999991E-3
4.296435857E0,-1.099999994E-3,5.499999970E-4,1.649999991E-3
4.298936393E0,-1.374999993E-4,1.649999991E-3,-1.649999991E-3
4.301436780E0,9.624999948E-4,5.499999970E-4,-1.649999991E-3
4.303937307E0,-1.374999993E-4,-5.499999970E-4,-3.712499980E-3
4.306437694E0,9.624999948E-4,-5.499999970E-4,-4.812499974E-3
4.308938002E0,-1.374999993E-4,5.499999970E-4,-5.774999969E-3
4.311438538E0,-1.374999993E-4,-5.499999970E-4,-5.774999969E-3
4.313938925E0,9.624999948E-4,-5.499999970E-4,-7.974999957E-3
4.316439465E0,9.624999948E-4,-1.649999991E-3,-7.974999957E-3
4.318939852E0,2.062499989E-3,5.499999970E-4,-1.003750041E-2
4.321440388E0,-1.374999993E-4,5.499999970E-4,-9.074999951E-3
4.323940775E0,-1.099999994E-3,1.649999991E-3,-1.113750041E-2
4.326441327E0,2.062499989E-3,1.649999991E-3,-1.333750039E-2
4.328941714E0,-1.374999993E-4,-1.649999991E-3,-1.003750041E-2
4.331442022E0,2.062499989E-3,-5.499999970E-4,-1.333750039E-2
4.333942635E0,9.624999948E-4,-5.499999970E-4,-1.113750041E-2
4.336442944E0,-1.374999993E-4,5.499999970E-4,-1.333750039E-2
4.338943480E0,-1.374999993E-4,1.649999991E-3,-1.223750040E-2
4.341443867E0,-1.374999993E-4,5.499999970E-4,-1.113750041E-2
4.343944403E0,-1.099999994E-3,-5.499999970E-4,-1.223750040E-2
4.346444790E0,9.624999948E-4,5.499999970E-4,-1.223750040E-2
4.348945323E0,9.624999948E-4,5.499999970E-4,-1.113750041E-2
4.351445709E0,-1.374999993E-4,5.499999970E-4,-1.223750040E-2
4.353946246E0,-1.099999994E-3,5.499999970E-4,-1.223750040E-2
4.356446632E0,-1.374999993E-4,-1.649999991E-3,-1.113750041E-2
4.358947173E0,9.624999948E-4,5.499999970E-4,-9.074999951E-3
4.361447482E0,-1.099999994E-3,1.649999991E-3,-1.003750041E-2
4.363947865E0,9.624999948E-4,5.499999970E-4,-1.003750041E-2
4.366448404E0,-1.374999993E-4,5.499999970E-4,-1.003750041E-2
4.368948790E0,9.624999948E-4,5.499999970E-4,-6.874999963E-3
4.371449327E0,-1.374999993E-4,5.499999970E-4,-7.974999957E-3
4.373949713E0,-1.099999994E-3,-5.499999970E-4,-6.874999963E-3
4.376450250E0,-1.374999993E-4,-5.499999970E-4,-7.974999957E-3
4.378950636E0,-1.374999993E-4,-5.499999970E-4,-7.974999957E-3
4.381451174E0,9.624999948E-4,-5.499999970E-4,-6.874999963E-3
4.383951560E0,9.624999948E-4,-1.649999991E-3,-5.774999969E-3
4.386452097E0,-1.374999993E-4,-5.499999970E-4,-7.974999957E-3
4.388952483E0,9.624999948E-4,-5.499999970E-4,-6.874999963E-3
4.391453010E0,-1.374999993E-4,5.499999970E-4,-6.874999963E-3
4.393953320E0,-1.099999994E-3,5.499999970E-4,-9.074999951E-3
4.396453702E0,-1.374999993E-4,-5.499999970E-4,-7.974999957E-3
4.398954241E0,2.062499989E-3,1.649999991E-3,-6.874999963E-3
4.401454627E0,-1.374999993E-4,-5.499999970E-4,-7.974999957E-3
4.403955164E0,-1.374999993E-4,5.499999970E-4,-9.074999951E-3
4.406455550E0,-1.374999993E-4,-1.649999991E-3,-1.003750041E-2
4.408956087E0,-1.374999993E-4,1.649999991E-3,-1.003750041E-2
4.411456431E0,-1.374999993E-4,-5.499999970E-4,-9.074999951E-3
4.413956738E0,-1.374999993E-4,5.499999970E-4,-9.074999951E-3
4.416457275E0,-1.099999994E-3,1.649999991E-3,-1.003750041E-2
4.418957661E0,-1.374999993E-4,1.649999991E-3,-1.113750041E-2
4.421458198E0,9.624999948E-4,5.499999970E-4,-1.113750041E-2
4.423958579E0,9.624999948E-4,-5.499999970E-4,-1.113750041E-2
4.426459116E0,-1.099999994E-3,5.499999970E-4,-1.223750040E-2
4.428959502E0,-1.374999993E-4,-5.499999970E-4,-1.003750041E-2
4.431460039E0,-1.374999993E-4,1.649999991E-3,-1.003750041E-2
4.433960440E0,9.624999948E-4,5.499999970E-4,-1.003750041E-2
4.436460747E0,-1.374999993E-4,5.499999970E-4,-1.113750041E-2
4.438961361E0,-1.374999993E-4,5.499999970E-4,-1.113750041E-2
4.441461670E0,9.624999948E-4,-5.499999970E-4,-6.874999963E-3
4.443962284E0,-1.374999993E-4,-5.499999970E-4,-9.074999951E-3
4.446462593E0,9.624999948E-4,-5.499999970E-4,-7.974999957E-3
4.448963130E0,-1.374999993E-4,1.649999991E-3,-5.774999969E-3
4.451463517E0,-1.374999993E-4,5.499999970E-4,-3.712499980E-3
4.453964053E0,-1.374999993E-4,5.499999970E-4,-3.712499980E-3
4.456464440E0,9.624999948E-4,5.499999970E-4,5.499999970E-4
4.458964976E0,-1.374999993E-4,5.499999970E-4,5.499999970E-4
4.461465363E0,9.624999948E-4,5.499999970E-4,4.812499974E-3
4.463965899E0,9.624999948E-4,5.499999970E-4,5.912499968E-3
4.466466209E0,-1.099999994E-3,-5.499999970E-4,6.874999963E-3
4.468966592E0,9.624999948E-4,-1.649999991E-3,9.074999951E-3
4.471467130E0,9.624999948E-4,-5.499999970E-4,1.113750041E-2
4.473967517E0,-1.374999993E-4,-5.499999970E-4,1.443750039E-2
4.476468077E0,9.624999948E-4,5.499999970E-4,1.649999991E-2
4.478968464E0,-1.374999993E-4,-1.649999991E-3,1.759999990E-2
4.481469000E0,9.624999948E-4,-5.499999970E-4,1.966249943E-2
4.483969387E0,9.624999948E-4,-5.499999970E-4,2.282499894E-2
4.486469918E0,9.624999948E-4,-5.499999970E-4,2.612499893E-2
4.488970305E0,9.624999948E-4,-5.499999970E-4,2.818750031E-2
4.491470841E0,9.624999948E-4,-5.499999970E-4,2.818750031E-2
4.493971228E0,9.624999948E-4,5.499999970E-4,2.928750031E-2
4.496471764E0,9.624999948E-4,5.499999970E-4,3.038750030E-2
4.498972040E0,-1.374999993E-4,5.499999970E-4,3.038750030E-2
4.501472423E0,2.062499989E-3,-1.649999991E-3,3.135000169E-2
4.503972961E0,9.624999948E-4,5.499999970E-4,3.355000168E-2
4.506473348E0,9.624999948E-4,-1.649999991E-3,3.355000168E-2
4.508973874E0,-1.099999994E-3,-3.712499980E-3,3.464999795E-2
4.511474261E0,-1.099999994E-3,-5.499999970E-4,3.355000168E-2
4.513974797E0,-1.374999993E-4,-5.499999970E-4,3.355000168E-2
4.516475184E0,9.624999948E-4,5.499999970E-4,3.244999796E-2
4.518975487E0,-1.374999993E-4,-5.499999970E-4,3.135000169E-2
4.521476023E0,-1.374999993E-4,-5.499999970E-4,3.135000169E-2
4.523976410E0,-1.374999993E-4,-5.499999970E-4,3.038750030E-2
4.526476946E0,-1.374999993E-4,-1.649999991E-3,2.928750031E-2
4.528977319E0,-1.374999993E-4,-1.649999991E-3,2.818750031E-2
4.531477855E0,9.624999948E-4,-1.649999991E-3,2.612499893E-2
4.533978242E0,-1.374999993E-4,-1.649999991E-3,2.502499893E-2
4.536478778E0,2.062499989E-3,-1.649999991E-3,2.392499894E-2
4.538979165E0,-1.374999993E-4,-5.499999970E-4,2.186249942E-2
4.541479697E0,9.624999948E-4,-5.499999970E-4,2.076249942E-2
4.543980083E0,9.624999948E-4,-5.499999970E-4,1.869999990E-2
4.546480620E0,9.624999948E-4,5.499999970E-4,1.649999991E-2
4.548981006E0,9.624999948E-4,-5.499999970E-4,1.539999992E-2
4.551481557E0,9.624999948E-4,5.499999970E-4,1.539999992E-2
4.553981866E0,9.624999948E-4,-5.499999970E-4,1.333750039E-2
4.556482249E0,-1.374999993E-4,1.649999991E-3,1.113750041E-2
4.558982787E0,9.624999948E-4,-5.499999970E-4,9.074999951E-3
4.561483174E0,9.624999948E-4,5.499999970E-4,6.874999963E-3
4.563983711E0,9.624999948E-4,5.499999970E-4,6.874999963E-3
4.566484097E0,-1.374999993E-4,-5.499999970E-4,2.612499986E-3
4.568984634E0,-1.374999993E-4,5.499999970E-4,1.649999991E-3
4.571484943E0,-1.374999993E-4,-5.499999970E-4,-1.649999991E-3
4.573985557E0,-1.374999993E-4,-5.499999970E-4,-3.712499980E-3
4.576485866E0,-1.374999993E-4,5.499999970E-4,-4.812499974E-3
4.578986480E0,9.624999948E-4,1.649999991E-3,-7.974999957E-3
4.581486790E0,-1.374999993E-4,1.649999991E-3,-9.074999951E-3
4.583987189E0,9.624999948E-4,-5.499999970E-4,-1.223750040E-2
4.586487726E0,9.624999948E-4,-5.499999970E-4,-1.333750039E-2
4.588988112E0,9.624999948E-4,-5.499999970E-4,-1.539999992E-2
4.591488649E0,-1.374999993E-4,1.649999991E-3,-1.759999990E-2
4.593989006E0,-1.374999993E-4,-5.499999970E-4,-1.759999990E-2
4.596489543E0,-1.374999993E-4,5.499999970E-4,-1.759999990E-2
4.598989929E0,9.624999948E-4,-1.649999991E-3,-1.759999990E-2
4.601490466E0,9.624999948E-4,1.649999991E-3,-1.759999990E-2
4.603990853E0,9.624999948E-4,5.499999970E-4,-1.966249943E-2
4.606491160E0,9.624999948E-4,-5.499999970E-4,-1.966249943E-2
4.608991697E0,-1.099999994E-3,-5.499999970E-4,-1.966249943E-2
4.611492083E0,-1.374999993E-4,-5.499999970E-4,-1.856249943E-2
4.613992620E0,2.062499989E-3,5.499999970E-4,-1.856249943E-2
4.616493030E0,-1.099999994E-3,-5.499999970E-4,-1.759999990E-2
4.618993567E0,-1.374999993E-4,5.499999970E-4,-1.649999991E-2
4.621493953E0,-1.374999993E-4,-5.499999970E-4,-1.759999990E-2
4.623994490E0,9.624999948E-4,1.649999991E-3,-1.539999992E-2
4.626494867E0,9.624999948E-4,5.499999970E-4,-1.333750039E-2
4.628995403E0,9.624999948E-4,-5.499999970E-4,-1.333750039E-2
4.631495790E0,-1.099999994E-3,5.499999970E-4,-1.333750039E-2
4.633996326E0,9.624999948E-4,5.499999970E-4,-1.003750041E-2
4.636496713E0,-1.374999993E-4,5.499999970E-4,-1.003750041E-2
4.638997020E0,-1.374999993E-4,5.499999970E-4,-7.974999957E-3
4.641497557E0,9.624999948E-4,1.649999991E-3,-7.974999957E-3
4.643997944E0,-1.374999993E-4,-5.499999970E-4,-5.774999969E-3
4.646498480E0,9.624999948E-4,2.612499986E-3,-5.774999969E-3
4.648998877E0,9.624999948E-4,1.649999991E-3,-5.774999969E-3
4.651499413E0,2.062499989E-3,5.499999970E-4,-4.812499974E-3
4.653999800E0,9.624999948E-4,5.499999970E-4,-4.812499974E-3
4.656500107E0,-1.374999993E-4,1.649999991E-3,-1.649999991E-3
4.659000653E0,2.062499989E-3,-5.499999970E-4,-2.612499986E-3
4.661501040E0,-1.374999993E-4,5.499999970E-4,-2.612499986E-3
4.664001576E0,9.624999948E-4,-5.499999970E-4,-3.712499980E-3
4.666501963E0,-1.374999993E-4,5.499999970E-4,-3.712499980E-3
4.669002514E0,9.624999948E-4,-5.499999970E-4,-2.612499986E-3
4.671502901E0,-1.374999993E-4,5.499999970E-4,-3.712499980E-3
4.674003437E0,-1.374999993E-4,-5.499999970E-4,-5.774999969E-3
4.676503824E0,9.624999948E-4,5.499999970E-4,-6.874999963E-3
4.679004360E0,-1.374999993E-4,5.499999970E-4,-4.812499974E-3
4.681504747E0,-1.374999993E-4,5.499999970E-4,-4.812499974E-3
4.684005283E0,9.624999948E-4,1.649999991E-3,-6.874999963E-3
4.686505670E0,-1.374999993E-4,1.649999991E-3,-7.974999957E-3
4.689006206E0,-1.374999993E-4,2.612499986E-3,-6.874999963E-3
4.691506525E0,-1.374999993E-4,-5.499999970E-4,-6.874999963E-3
4.694006908E0,2.062499989E-3,5.499999970E-4,-7.974999957E-3
4.696507446E0,9.624999948E-4,-5.499999970E-4,-6.874999963E-3
4.699007833E0,9.624999948E-4,-5.499999970E-4,-7.974999957E-3
4.701508369E0,2.062499989E-3,5.499999970E-4,-6.874999963E-3
4.704008756E0,9.624999948E-4,5.499999970E-4,-6.874999963E-3
4.706509292E0,9.624999948E-4,5.499999970E-4,-6.874999963E-3
4.709009679E0,9.624999948E-4,-1.649999991E-3,-6.874999963E-3
4.711509987E0,9.624999948E-4,1.649999991E-3,-9.074999951E-3
4.714010533E0,9.624999948E-4,5.499999970E-4,-6.874999963E-3
4.716510920E0,9.624999948E-4,5.499999970E-4,-7.974999957E-3
4.719011456E0,-1.374999993E-4,1.649999991E-3,-7.974999957E-3
4.721511843E0,9.624999948E-4,-1.649999991E-3,-7.974999957E-3
4.724012379E0,-1.374999993E-4,-5.499999970E-4,-7.974999957E-3
4.726512756E0,-1.374999993E-4,-5.499999970E-4,-6.874999963E-3
4.729013292E0,9.624999948E-4,5.499999970E-4,-5.774999969E-3
4.731513679E0,9.624999948E-4,-5.499999970E-4,-6.874999963E-3
4.734014216E0,9.624999948E-4,5.499999970E-4,-9.074999951E-3
4.736514626E0,9.624999948E-4,5.499999970E-4,-6.874999963E-3
4.739015163E0,-1.099999994E-3,5.499999970E-4,-6.874999963E-3
4.741515472E0,9.624999948E-4,-5.499999970E-4,-5.774999969E-3
4.744015855E0,9.624999948E-4,-1.649999991E-3,-4.812499974E-3
4.746516393E0,9.624999948E-4,5.499999970E-4,-3.712499980E-3
4.749016799E0,-1.374999993E-4,-5.499999970E-4,-3.712499980E-3
4.751517335E0,-1.374999993E-4,-5.499999970E-4,-2.612499986E-3
4.754017722E0,9.624999948E-4,-5.499999970E-4,-2.612499986E-3
4.756518259E0,9.624999948E-4,1.649999991E-3,-5.499999970E-4
4.759018655E0,9.624999948E-4,-5.499999970E-4,5.499999970E-4
4.761519192E0,9.624999948E-4,-5.499999970E-4,5.499999970E-4
4.764019578E0,9.624999948E-4,-5.499999970E-4,1.649999991E-3
4.766520115E0,-1.374999993E-4,-5.499999970E-4,3.712499980E-3
4.769020453E0,-1.374999993E-4,-5.499999970E-4,3.712499980E-3
4.771521067E0,9.624999948E-4,5.499999970E-4,4.812499974E-3
4.774021377E0,-1.374999993E-4,5.499999970E-4,5.912499968E-3
4.776521732E0,-1.099999994E-3,-5.499999970E-4,5.912499968E-3
4.779022269E0,-1.374999993E-4,-5.499999970E-4,7.974999957E-3
4.781522655E0,-1.374999993E-4,5.499999970E-4,9.074999951E-3
4.784023192E0,9.624999948E-4,5.499999970E-4,1.017499994E-2
4.786523578E0,9.624999948E-4,-1.649999991E-3,1.113750041E-2
4.789024101E0,9.624999948E-4,5.499999970E-4,1.223750040E-2
4.791524487E0,-1.374999993E-4,-1.649999991E-3,1.443750039E-2
4.794025024E0,9.624999948E-4,1.649999991E-3,1.223750040E-2
4.796525334E0,-1.099999994E-3,-5.499999970E-4,1.443750039E-2
4.799025711E0,9.624999948E-4,1.649999991E-3,1.649999991E-2
4.801526250E0,-1.374999993E-4,5.499999970E-4,1.539999992E-2
4.804026636E0,9.624999948E-4,-5.499999970E-4,1.649999991E-2
4.806527173E0,-1.374999993E-4,5.499999970E-4,1.539999992E-2
4.809027564E0,-1.374999993E-4,-5.499999970E-4,1.539999992E-2
4.811527872E0,-1.374999993E-4,-5.499999970E-4,1.539999992E-2
4.814028485E0,-1.374999993E-4,5.499999970E-4,1.223750040E-2
4.816528795E0,9.624999948E-4,-5.499999970E-4,1.113750041E-2
4.819029409E0,-1.374999993E-4,1.649999991E-3,1.333750039E-2
4.821529708E0,9.624999948E-4,5.499999970E-4,1.017499994E-2
4.824030322E0,-1.374999993E-4,5.499999970E-4,1.017499994E-2
4.826530631E0,-1.099999994E-3,1.649999991E-3,9.074999951E-3
4.829031168E0,-1.374999993E-4,5.499999970E-4,5.912499968E-3
4.831531549E0,9.624999948E-4,-5.499999970E-4,5.912499968E-3
4.834032086E0,9.624999948E-4,1.649999991E-3,6.874999963E-3
4.836532473E0,-1.374999993E-4,-5.499999970E-4,2.612499986E-3
4.839033009E0,-1.374999993E-4,5.499999970E-4,2.612499986E-3
4.841533416E0,9.624999948E-4,-5.499999970E-4,1.649999991E-3
4.844033952E0,2.062499989E-3,-5.499999970E-4,5.499999970E-4
4.846534262E0,-1.374999993E-4,1.649999991E-3,5.499999970E-4
4.849034644E0,-1.374999993E-4,-5.499999970E-4,-1.649999991E-3
4.851535178E0,9.624999948E-4,5.499999970E-4,-5.499999970E-4
4.854035565E0,-1.374999993E-4,-1.649999991E-3,5.499999970E-4
4.856536101E0,-1.374999993E-4,-5.499999970E-4,-5.499999970E-4
4.859036488E0,9.624999948E-4,-5.499999970E-4,-1.649999991E-3
4.861537024E0,2.062499989E-3,1.649999991E-3,-5.499999970E-4
4.864037416E0,2.062499989E-3,5.499999970E-4,-5.499999970E-4
4.866537952E0,-1.374999993E-4,-5.499999970E-4,-5.499999970E-4
4.869038339E0,9.624999948E-4,-1.649999991E-3,-2.612499986E-3
4.871538875E0,9.624999948E-4,-5.499999970E-4,-2.612499986E-3
4.874039267E0,-1.374999993E-4,5.499999970E-4,-2.612499986E-3
4.876539803E0,-1.374999993E-4,-1.649999991E-3,-1.649999991E-3
4.879040113E0,-1.374999993E-4,5.499999970E-4,-2.612499986E-3
4.881540496E0,9.624999948E-4,1.649999991E-3,-1.649999991E-3
4.884041044E0,-1.099999994E-3,-5.499999970E-4,-1.649999991E-3
4.886541431E0,9.624999948E-4,5.499999970E-4,5.499999970E-4
4.889041967E0,9.624999948E-4,5.499999970E-4,-5.499999970E-4
4.891542354E0,9.624999948E-4,2.612499986E-3,-1.649999991E-3
4.894042899E0,-1.374999993E-4,-5.499999970E-4,-2.612499986E-3
4.896543286E0,9.624999948E-4,5.499999970E-4,-3.712499980E-3
4.899043594E0,-1.374999993E-4,-5.499999970E-4,-2.612499986E-3
4.901544130E0,-1.099999994E-3,1.649999991E-3,-3.712499980E-3
4.904044498E0,-1.099999994E-3,-5.499999970E-4,-2.612499986E-3
4.906545034E0,-1.374999993E-4,-5.499999970E-4,-4.812499974E-3
4.909045421E0,9.624999948E-4,-5.499999970E-4,-4.812499974E-3
4.911545957E0,-1.374999993E-4,5.499999970E-4,-4.812499974E-3
4.914046334E0,-1.374999993E-4,-5.499999970E-4,-5.774999969E-3
4.916546870E0,9.624999948E-4,5.499999970E-4,-3.712499980E-3
4.919047257E0,9.624999948E-4,-5.499999970E-4,-5.774999969E-3
4.921547793E0,9.624999948E-4,-5.499999970E-4,-6.874999963E-3
4.924048166E0,9.624999948E-4,5.499999970E-4,-6.874999963E-3
4.926548703E0,9.624999948E-4,-5.499999970E-4,-3.712499980E-3
4.929049089E0,9.624999948E-4,5.499999970E-4,-5.774999969E-3
4.931549397E0,-1.374999993E-4,5.499999970E-4,-6.874999963E-3
4.934049918E0,-1.374999993E-4,-5.499999970E-4,-5.774999969E-3
4.936550305E0,-1.099999994E-3,-5.499999970E-4,-4.812499974E-3
4.939050841E0,9.624999948E-4,-5.499999970E-4,-3.712499980E-3
4.941551228E0,2.062499989E-3,-1.649999991E-3,-3.712499980E-3
4.944051808E0,2.062499989E-3,1.649999991E-3,-2.612499986E-3
4.946552195E0,-1.099999994E-3,1.649999991E-3,-4.812499974E-3
4.949052503E0,-1.374999993E-4,-5.499999970E-4,-3.712499980E-3
4.951553039E0,-1.374999993E-4,-5.499999970E-4,-3.712499980E-3
4.954053655E0,-1.374999993E-4,-1.649999991E-3,-3.712499980E-3
4.956553964E0,9.624999948E-4,5.499999970E-4,-2.612499986E-3
4.959054349E0,9.624999948E-4,5.499999970E-4,-3.712499980E-3
4.961554885E0,-1.374999993E-4,5.499999970E-4,-2.612499986E-3
4.964055272E0,-1.374999993E-4,-5.499999970E-4,-2.612499986E-3
4.966555828E0,-1.374999993E-4,5.499999970E-4,-2.612499986E-3
4.969056214E0,9.624999948E-4,5.499999970E-4,-1.649999991E-3
4.971556751E0,-1.099999994E-3,-5.499999970E-4,-2.612499986E-3
4.974057137E0,9.624999948E-4,5.499999970E-4,-2.612499986E-3
4.976557659E0,-1.374999993E-4,-1.649999991E-3,-1.649999991E-3
4.979058045E0,-1.374999993E-4,5.499999970E-4,-2.612499986E-3
4.981558582E0,-1.374999993E-4,-5.499999970E-4,-5.499999970E-4
4.984058968E0,9.624999948E-4,1.649999991E-3,-1.649999991E-3
4.986559267E0,-1.374999993E-4,5.499999970E-4,-5.499999970E-4
4.989059804E0,-1.099999994E-3,5.499999970E-4,-1.649999991E-3
4.991560190E0,2.062499989E-3,5.499999970E-4,-5.499999970E-4
4.994060727E0,9.624999948E-4,-5.499999970E-4,-5.499999970E-4
4.996561117E0,-1.374999993E-4,1.649999991E-3,-1.649999991E-3
4.999061654E0,9.624999948E-4,-1.649999991E-3,-2.612499986E-3
5.001562040E0,9.624999948E-4,5.499999970E-4,-5.499999970E-4
5.004062577E0,2.062499989E-3,-5.499999970E-4,5.499999970E-4
5.006562963E0,-1.374999993E-4,5.499999970E-4,-5.499999970E-4
5.009063500E0,-1.099999994E-3,-1.649999991E-3,5.499999970E-4
5.011563810E0,-1.374999993E-4,-5.499999970E-4,5.499999970E-4
5.014064423E0,9.624999948E-4,5.499999970E-4,5.499999970E-4
5.016564733E0,-1.374999993E-4,-5.499999970E-4,-5.499999970E-4
5.019065127E0,-1.374999993E-4,1.649999991E-3,-5.499999970E-4
5.021565664E0,9.624999948E-4,-5.499999970E-4,5.499999970E-4
5.024066050E0,9.624999948E-4,5.499999970E-4,2.612499986E-3
5.026566587E0,-1.374999993E-4,-5.499999970E-4,1.649999991E-3
5.029066969E0,-1.374999993E-4,-5.499999970E-4,-5.499999970E-4
5.031567505E0,9.624999948E-4,-5.499999970E-4,-5.499999970E-4
5.034067892E0,9.624999948E-4,5.499999970E-4,-1.649999991E-3
5.036568199E0,9.624999948E-4,-5.499999970E-4,-5.774999969E-3
5.039068736E0,-1.374999993E-4,1.649999991E-3,-5.774999969E-3
5.041569117E0,9.624999948E-4,-5.499999970E-4,-6.874999963E-3
5.044069654E0,9.624999948E-4,-5.499999970E-4,-1.003750041E-2
5.046570041E0,9.624999948E-4,2.612499986E-3,-1.223750040E-2
5.049070577E0,2.062499989E-3,-5.499999970E-4,-1.333750039E-2
5.051570955E0,-1.374999993E-4,5.499999970E-4,-1.429999992E-2
5.054071491E0,-1.099999994E-3,5.499999970E-4,-1.649999991E-2
5.056571878E0,-1.374999993E-4,1.649999991E-3,-1.759999990E-2
