"Time (s)","Acceleration x (m/s^2)","Acceleration y (m/s^2)","Acceleration z (m/s^2)"
2.606853500E-2,0.000000000E0,3.000000026E-3,9.850950241E0
2.857657300E-2,-1.200000010E-2,3.195000067E-2,9.850950241E0
3.108549600E-2,-1.695000008E-2,2.505000122E-2,9.855000496E0
3.358857500E-2,-3.000000026E-3,3.000000026E-3,9.829050064E0
3.608887200E-2,-1.500000060E-2,1.305000018E-2,9.829050064E0
3.858918000E-2,-1.500000060E-2,6.000000052E-3,9.808050156E0
4.108956500E-2,-1.695000008E-2,1.500000060E-2,9.834000587E0
4.358987200E-2,-5.505000427E-2,1.995000057E-2,9.835950851E0
4.609017100E-2,-5.295000225E-2,7.950000465E-3,9.847950935E0
4.859070800E-2,-4.305000231E-2,3.000000026E-3,9.853050232E0
5.109101700E-2,-3.900000080E-2,-1.050000079E-3,9.826950073E0
5.359140000E-2,-4.095000029E-2,1.050000079E-3,9.835950851E0
5.609172400E-2,-6.000000238E-2,1.050000079E-3,9.853050232E0
5.859226000E-2,-4.305000231E-2,1.005000062E-2,9.850950241E0
6.109257000E-2,-1.200000010E-2,-1.050000079E-3,9.834000587E0
6.359295200E-2,-1.905000024E-2,-1.005000062E-2,9.826950073E0
6.609326200E-2,-1.905000024E-2,-1.005000062E-2,9.819000244E0
6.859380300E-2,-1.005000062E-2,1.305000018E-2,9.831000328E0
7.109411300E-2,-2.700000070E-2,2.505000122E-2,9.838950157E0
7.359449600E-2,0.000000000E0,2.505000122E-2,9.853050232E0
7.609503400E-2,-3.000000026E-3,1.005000062E-2,9.843000412E0
7.859510300E-2,-1.200000010E-2,3.000000119E-2,9.846000671E0
8.109571700E-2,-1.695000008E-2,3.900000080E-2,9.826950073E0
8.359602600E-2,-1.500000060E-2,4.905000329E-2,9.822000504E0
8.609656300E-2,-2.400000021E-2,2.505000122E-2,9.835950851E0
8.859687200E-2,-2.205000073E-2,2.505000122E-2,9.834000587E0
9.109728400E-2,-1.905000024E-2,3.195000067E-2,9.835950851E0
9.359759400E-2,-5.805000290E-2,2.700000070E-2,9.841050148E0
9.609813000E-2,-5.100000277E-2,3.900000080E-2,9.855000496E0
9.859844000E-2,-7.005000114E-2,4.395000264E-2,9.858000755E0
1.010987620E-1,-7.200000435E-2,3.405000269E-2,9.847950935E0
1.035991440E-1,-5.505000427E-2,2.205000073E-2,9.838950157E0
1.060996830E-1,-2.400000021E-2,3.900000080E-2,9.829050064E0
1.085999920E-1,-2.895000204E-2,2.505000122E-2,9.831000328E0
1.111003750E-1,-2.700000070E-2,3.900000080E-2,9.829050064E0
1.136006850E-1,-3.105000220E-2,4.095000029E-2,9.834000587E0
1.161009920E-1,-3.900000080E-2,4.395000264E-2,9.855000496E0
1.186015290E-1,-1.500000060E-2,4.605000094E-2,9.846000671E0
1.211018390E-1,-1.905000024E-2,4.095000029E-2,9.853050232E0
1.236022400E-1,0.000000000E0,6.795000285E-2,9.843000412E0
1.261025500E-1,0.000000000E0,6.495000422E-2,9.835950851E0
1.286030860E-1,-1.695000008E-2,7.005000114E-2,9.831000328E0
1.311033960E-1,-3.105000220E-2,6.105000153E-2,9.847950935E0
1.336037840E-1,-1.695000008E-2,6.495000422E-2,9.834000587E0
1.361043220E-1,-3.105000220E-2,6.495000422E-2,9.829050064E0
1.386046320E-1,-3.405000269E-2,7.304999977E-2,9.834000587E0
1.411049400E-1,-5.295000225E-2,7.500000298E-2,9.846000671E0
1.436053220E-1,-6.705000252E-2,6.495000422E-2,9.858000755E0
1.461056220E-1,-4.605000094E-2,6.495000422E-2,9.859950066E0
1.486061580E-1,-5.295000225E-2,5.595000088E-2,9.859950066E0
1.511064680E-1,-5.505000427E-2,5.100000277E-2,9.823950768E0
1.536068510E-1,-4.605000094E-2,4.605000094E-2,9.838950157E0
1.561071550E-1,-3.900000080E-2,4.395000264E-2,9.841050148E0
1.586076920E-1,-3.000000026E-3,5.295000225E-2,9.850950241E0
1.611080020E-1,-1.695000008E-2,3.900000080E-2,9.838950157E0
1.636083840E-1,-2.400000021E-2,4.605000094E-2,9.831000328E0
1.661086750E-1,-1.200000010E-2,7.304999977E-2,9.843000412E0
1.686092110E-1,-1.200000010E-2,6.300000101E-2,9.859950066E0
1.711095210E-1,-4.950000439E-3,6.495000422E-2,9.855000496E0
1.736099040E-1,-1.005000062E-2,6.495000422E-2,9.838950157E0
1.761102180E-1,6.000000052E-3,7.005000114E-2,9.822000504E0
1.786107550E-1,-1.005000062E-2,7.500000298E-2,9.823950768E0
1.811111410E-1,-4.950000439E-3,8.895000070E-2,9.817050934E0
1.836114490E-1,-1.905000024E-2,8.895000070E-2,9.843000412E0
1.861119860E-1,-1.695000008E-2,9.405000508E-2,9.846000671E0
1.886122900E-1,-4.305000231E-2,7.995000482E-2,9.838950157E0
1.911126730E-1,-3.405000269E-2,9.405000508E-2,9.831000328E0
1.936129830E-1,-2.400000021E-2,7.304999977E-2,9.850950241E0
1.961135190E-1,-2.400000021E-2,7.005000114E-2,9.850950241E0
1.986138240E-1,-2.205000073E-2,8.895000070E-2,9.834000587E0
2.011142060E-1,-3.105000220E-2,7.304999977E-2,9.823950768E0
2.036145160E-1,-2.895000204E-2,6.300000101E-2,9.841050148E0
2.061150530E-1,-7.050000131E-3,5.595000088E-2,9.829050064E0
2.086153620E-1,-7.050000131E-3,6.795000285E-2,9.838950157E0
2.111157360E-1,1.605000161E-2,7.995000482E-2,9.841050148E0
2.136160460E-1,3.195000067E-2,7.304999977E-2,9.846000671E0
2.161163530E-1,1.050000079E-3,8.505000174E-2,9.841050148E0
2.186168990E-1,1.800000109E-2,7.304999977E-2,9.841050148E0
2.211172080E-1,3.000000119E-2,7.995000482E-2,9.847950935E0
2.236175910E-1,4.695000127E-2,9.705000371E-2,9.838950157E0
2.261179010E-1,1.995000057E-2,9.405000508E-2,9.810000420E0
2.286184030E-1,1.095000096E-2,8.205000311E-2,9.826950073E0
2.311187900E-1,1.095000096E-2,9.195000678E-2,9.822000504E0
2.336190980E-1,2.805000171E-2,7.695000619E-2,9.829050064E0
2.361196340E-1,1.800000109E-2,9.405000508E-2,9.841050148E0
2.386199440E-1,4.050000105E-3,8.700000495E-2,9.850950241E0
2.411203170E-1,-1.500000060E-2,7.500000298E-2,9.853050232E0
2.436206270E-1,1.095000096E-2,6.495000422E-2,9.862950325E0
2.461211640E-1,2.505000122E-2,6.495000422E-2,9.850950241E0
2.486214730E-1,3.000000119E-2,4.605000094E-2,9.819000244E0
2.511218410E-1,2.805000171E-2,6.300000101E-2,9.831000328E0
2.536221510E-1,2.295000106E-2,4.905000329E-2,9.843000412E0
2.561224580E-1,3.000000119E-2,7.304999977E-2,9.846000671E0
2.586229950E-1,4.200000316E-2,6.300000101E-2,9.859950066E0
2.611232850E-1,4.905000329E-2,5.100000277E-2,9.862950325E0
2.636236680E-1,7.500000298E-2,7.695000619E-2,9.859950066E0
2.661239780E-1,7.800000161E-2,9.195000678E-2,9.826950073E0
2.686245140E-1,6.300000101E-2,8.205000311E-2,9.838950157E0
2.711248140E-1,8.295000345E-2,7.995000482E-2,9.826950073E0
2.736251970E-1,6.795000285E-2,7.695000619E-2,9.834000587E0
2.761255060E-1,6.795000285E-2,7.995000482E-2,9.835950851E0
2.786260430E-1,6.105000153E-2,7.695000619E-2,9.835950851E0
2.811264290E-1,6.599999964E-2,8.205000311E-2,9.834000587E0
2.836267370E-1,4.695000127E-2,9.405000508E-2,9.850950241E0
2.861272730E-1,3.900000080E-2,8.700000495E-2,9.846000671E0
2.886275830E-1,2.805000171E-2,7.005000114E-2,9.838950157E0
2.911279420E-1,3.000000119E-2,6.105000153E-2,9.835950851E0
2.936282510E-1,4.395000264E-2,5.295000225E-2,9.843000412E0
2.961287880E-1,4.695000127E-2,8.205000311E-2,9.850950241E0
2.986290980E-1,5.100000277E-2,8.505000174E-2,9.843000412E0
3.011294800E-1,5.100000277E-2,5.805000290E-2,9.819000244E0
3.036297760E-1,5.895000324E-2,5.100000277E-2,9.829050064E0
3.061300840E-1,6.105000153E-2,5.100000277E-2,9.853050232E0
3.086306200E-1,6.105000153E-2,6.495000422E-2,9.859950066E0
3.111309300E-1,6.599999964E-2,6.795000285E-2,9.850950241E0
3.136313120E-1,7.995000482E-2,5.595000088E-2,9.841050148E0
3.161316220E-1,8.505000174E-2,6.795000285E-2,9.838950157E0
3.186321590E-1,7.995000482E-2,6.300000101E-2,9.834000587E0
3.211324680E-1,8.295000345E-2,7.500000298E-2,9.819000244E0
3.236328510E-1,5.595000088E-2,8.700000495E-2,9.829050064E0
3.261331560E-1,5.100000277E-2,8.205000311E-2,9.850950241E0
3.286336920E-1,4.395000264E-2,7.304999977E-2,9.847950935E0
3.311340790E-1,5.100000277E-2,7.005000114E-2,9.838950157E0
3.336343860E-1,4.200000316E-2,7.500000298E-2,9.846000671E0
3.361349230E-1,5.400000140E-2,6.795000285E-2,9.846000671E0
3.386352620E-1,4.695000127E-2,5.805000290E-2,9.834000587E0
3.411356440E-1,4.695000127E-2,6.495000422E-2,9.826950073E0
3.436359540E-1,3.195000067E-2,4.395000264E-2,9.838950157E0
3.461364900E-1,2.805000171E-2,3.405000269E-2,9.838950157E0
3.486367760E-1,3.195000067E-2,3.900000080E-2,9.847950935E0
3.511371590E-1,4.395000264E-2,3.405000269E-2,9.850950241E0
3.536374680E-1,6.599999964E-2,6.495000422E-2,9.846000671E0
3.561380050E-1,6.795000285E-2,3.900000080E-2,9.846000671E0
3.586383150E-1,5.895000324E-2,3.900000080E-2,9.835950851E0
3.611386970E-1,3.900000080E-2,4.605000094E-2,9.843000412E0
3.636390070E-1,5.400000140E-2,6.105000153E-2,9.847950935E0
3.661395430E-1,5.595000088E-2,6.105000153E-2,9.829050064E0
3.686398530E-1,4.200000316E-2,5.295000225E-2,9.829050064E0
3.711402360E-1,4.905000329E-2,6.105000153E-2,9.826950073E0
3.736405450E-1,3.195000067E-2,7.304999977E-2,9.853050232E0
3.761410820E-1,4.200000316E-2,8.505000174E-2,9.835950851E0
3.786413920E-1,1.995000057E-2,7.695000619E-2,9.838950157E0
3.811417740E-1,3.705000132E-2,6.495000422E-2,9.850950241E0
3.836420930E-1,1.995000057E-2,4.605000094E-2,9.834000587E0
3.861426290E-1,-3.000000026E-3,4.905000329E-2,9.829050064E0
3.886429390E-1,4.050000105E-3,4.395000264E-2,9.831000328E0
3.911433220E-1,2.295000106E-2,5.805000290E-2,9.826950073E0
3.936436260E-1,6.000000052E-3,3.705000132E-2,9.841050148E0
3.961441630E-1,1.305000018E-2,3.900000080E-2,9.847950935E0
3.986444720E-1,-7.050000131E-3,3.405000269E-2,9.855000496E0
4.011448550E-1,3.195000067E-2,3.195000067E-2,9.862950325E0
4.036451650E-1,3.000000119E-2,3.000000119E-2,9.843000412E0
4.061457010E-1,3.705000132E-2,2.505000122E-2,9.843000412E0
4.086460110E-1,3.900000080E-2,1.800000109E-2,9.846000671E0
4.111463940E-1,2.505000122E-2,3.405000269E-2,9.829050064E0
4.136466940E-1,1.305000018E-2,3.705000132E-2,9.838950157E0
4.161472310E-1,1.605000161E-2,2.700000070E-2,9.829050064E0
4.186476170E-1,3.705000132E-2,1.500000060E-2,9.838950157E0
4.211479250E-1,-3.000000026E-3,5.805000290E-2,9.834000587E0
4.236484620E-1,-7.050000131E-3,7.995000482E-2,9.835950851E0
4.261487900E-1,0.000000000E0,3.705000132E-2,9.841050148E0
4.286491730E-1,7.950000465E-3,3.900000080E-2,9.835950851E0
4.311494830E-1,-7.050000131E-3,3.900000080E-2,9.838950157E0
4.336500190E-1,-2.205000073E-2,4.395000264E-2,9.853050232E0
4.361503290E-1,-3.105000220E-2,3.195000067E-2,9.826950073E0
4.386506360E-1,-2.700000070E-2,3.405000269E-2,9.841050148E0
4.411510190E-1,-1.905000024E-2,1.500000060E-2,9.838950157E0
4.436513290E-1,-4.950000439E-3,1.050000079E-3,9.843000412E0
4.461518650E-1,-1.200000010E-2,-1.050000079E-3,9.853050232E0
4.486521750E-1,-3.105000220E-2,-1.305000018E-2,9.855000496E0
4.511525580E-1,-4.950000439E-3,1.800000109E-2,9.850950241E0
4.536528670E-1,0.000000000E0,-4.950000439E-3,9.855000496E0
4.561534040E-1,1.605000161E-2,7.950000465E-3,9.835950851E0
4.586537130E-1,-7.050000131E-3,-7.950000465E-3,9.826950073E0
4.611540960E-1,-1.695000008E-2,7.950000465E-3,9.831000328E0
4.636544060E-1,1.095000096E-2,1.800000109E-2,9.823950768E0
4.661549420E-1,1.050000079E-3,3.405000269E-2,9.853050232E0
4.686552570E-1,-4.950000439E-3,1.995000057E-2,9.841050148E0
4.711556400E-1,-1.905000024E-2,1.305000018E-2,9.850950241E0
4.736559490E-1,-1.200000010E-2,3.405000269E-2,9.843000412E0
4.761564860E-1,-1.695000008E-2,3.195000067E-2,9.838950157E0
4.786567790E-1,-2.400000021E-2,3.000000119E-2,9.826950073E0
4.811571620E-1,-3.105000220E-2,1.800000109E-2,9.834000587E0
4.836574720E-1,-3.900000080E-2,3.405000269E-2,9.819000244E0
4.861580080E-1,-3.900000080E-2,-1.050000079E-3,9.838950157E0
4.886582990E-1,-2.895000204E-2,-3.000000026E-3,9.847950935E0
4.911586810E-1,-2.400000021E-2,-1.305000018E-2,9.841050148E0
4.936589910E-1,-3.600000218E-2,-7.950000465E-3,9.834000587E0
4.961595280E-1,-3.405000269E-2,-2.205000073E-2,9.855000496E0
4.986598370E-1,-3.600000218E-2,-2.505000122E-2,9.853050232E0
5.011602200E-1,-1.005000062E-2,-1.305000018E-2,9.841050148E0
5.036607580E-1,-2.700000070E-2,-2.505000122E-2,9.853050232E0
5.061610680E-1,-2.205000073E-2,-1.005000062E-2,9.841050148E0
5.086614410E-1,0.000000000E0,-1.005000062E-2,9.850950241E0
5.111617500E-1,-2.205000073E-2,-4.950000439E-3,9.846000671E0
5.136622870E-1,-4.950000439E-3,6.000000052E-3,9.838950157E0
5.161625970E-1,6.000000052E-3,1.005000062E-2,9.847950935E0
5.186629890E-1,-1.005000062E-2,7.950000465E-3,9.838950157E0
5.211632990E-1,-1.905000024E-2,3.405000269E-2,9.838950157E0
5.236638350E-1,-3.105000220E-2,6.000000052E-3,9.829050064E0
5.261641450E-1,-2.895000204E-2,3.000000026E-3,9.834000587E0
5.286645180E-1,-1.500000060E-2,-4.950000439E-3,9.826950073E0
5.311648270E-1,-2.700000070E-2,-1.305000018E-2,9.829050064E0
5.336651350E-1,-2.895000204E-2,-1.050000079E-3,9.870000839E0
5.361656720E-1,-3.105000220E-2,-7.950000465E-3,9.841050148E0
5.386659810E-1,-1.500000060E-2,-1.695000008E-2,9.843000412E0
5.411663640E-1,-2.400000021E-2,-2.895000204E-2,9.843000412E0
5.436666740E-1,-3.105000220E-2,-2.895000204E-2,9.859950066E0
5.461672100E-1,-4.305000231E-2,-4.395000264E-2,9.858000755E0
5.486675970E-1,-1.500000060E-2,-2.700000070E-2,9.841050148E0
5.511678950E-1,-1.500000060E-2,-3.405000269E-2,9.843000412E0
5.536684320E-1,-1.200000010E-2,-3.405000269E-2,9.850950241E0
5.561687420E-1,-7.050000131E-3,-3.195000067E-2,9.829050064E0
5.586691240E-1,-3.105000220E-2,-2.505000122E-2,9.846000671E0
5.611694340E-1,-2.700000070E-2,-2.205000073E-2,9.843000412E0
5.636699700E-1,-2.205000073E-2,-1.050000079E-3,9.846000671E0
5.661702800E-1,-7.050000131E-3,-1.050000079E-3,9.843000412E0
5.686706630E-1,-1.695000008E-2,-3.000000026E-3,9.853050232E0
5.711709620E-1,-1.005000062E-2,-3.000000026E-3,9.847950935E0
5.736714990E-1,-7.050000131E-3,-3.000000026E-3,9.843000412E0
5.761718090E-1,-1.500000060E-2,1.050000079E-3,9.841050148E0
5.786721910E-1,-3.105000220E-2,-3.000000026E-3,9.835950851E0
5.811725010E-1,-2.205000073E-2,-3.405000269E-2,9.838950157E0
5.836728040E-1,-7.050000131E-3,-2.895000204E-2,9.841050148E0
5.861733400E-1,-2.700000070E-2,-3.900000080E-2,9.846000671E0
5.886737270E-1,-3.105000220E-2,-4.095000029E-2,9.850950241E0
5.911740340E-1,-3.105000220E-2,-2.505000122E-2,9.862950325E0
5.936745520E-1,-3.600000218E-2,-2.505000122E-2,9.838950157E0
5.961748620E-1,-3.105000220E-2,-4.800000042E-2,9.835950851E0
5.986752440E-1,-3.600000218E-2,-4.395000264E-2,9.846000671E0
6.011755540E-1,-2.400000021E-2,-4.800000042E-2,9.829050064E0
6.036760610E-1,-4.950000439E-3,-2.700000070E-2,9.826950073E0
6.061763710E-1,-2.400000021E-2,-2.205000073E-2,9.847950935E0
6.086767540E-1,-2.700000070E-2,-2.205000073E-2,9.835950851E0
6.111770630E-1,-1.905000024E-2,-2.700000070E-2,9.835950851E0
6.136775860E-1,-1.905000024E-2,-1.500000060E-2,9.850950241E0
6.161778950E-1,-2.400000021E-2,-2.205000073E-2,9.859950066E0
6.186782780E-1,-2.205000073E-2,-3.000000026E-3,9.834000587E0
6.211785880E-1,-3.105000220E-2,-1.050000079E-3,9.838950157E0
6.236791190E-1,-4.605000094E-2,-1.305000018E-2,9.834000587E0
6.261795060E-1,-2.400000021E-2,-1.305000018E-2,9.850950241E0
6.286798140E-1,-4.305000231E-2,1.305000018E-2,9.841050148E0
6.311803500E-1,-4.605000094E-2,3.000000026E-3,9.847950935E0
6.336806550E-1,-5.805000290E-2,-1.695000008E-2,9.853050232E0
6.361809620E-1,-3.900000080E-2,-1.695000008E-2,9.835950851E0
6.386813450E-1,-4.305000231E-2,-2.895000204E-2,9.859950066E0
6.411816550E-1,-3.405000269E-2,-2.505000122E-2,9.838950157E0
6.436822010E-1,-5.295000225E-2,-2.700000070E-2,9.858000755E0
6.461825110E-1,-4.800000042E-2,-2.895000204E-2,9.858000755E0
6.486828940E-1,-5.100000277E-2,-1.695000008E-2,9.855000496E0
6.511832030E-1,-4.800000042E-2,-2.505000122E-2,9.834000587E0
6.536837400E-1,-4.800000042E-2,-2.205000073E-2,9.843000412E0
6.561840540E-1,-5.100000277E-2,-7.950000465E-3,9.858000755E0
6.586844370E-1,-5.295000225E-2,-3.000000026E-3,9.846000671E0
6.611847470E-1,-5.505000427E-2,7.950000465E-3,9.855000496E0
6.636852830E-1,-2.205000073E-2,2.700000070E-2,9.829050064E0
6.661856560E-1,-4.095000029E-2,3.195000067E-2,9.814950943E0
6.686859640E-1,-4.800000042E-2,3.000000026E-3,9.822000504E0
6.711865000E-1,-4.800000042E-2,7.950000465E-3,9.838950157E0
6.736868100E-1,-5.805000290E-2,2.205000073E-2,9.850950241E0
6.761871870E-1,-5.100000277E-2,2.205000073E-2,9.823950768E0
6.786874970E-1,-5.295000225E-2,2.700000070E-2,9.841050148E0
6.811880330E-1,-4.800000042E-2,2.505000122E-2,9.858000755E0
6.836883430E-1,-7.695000619E-2,1.305000018E-2,9.847950935E0
6.861887210E-1,-6.495000422E-2,-3.000000026E-3,9.858000755E0
6.886890300E-1,-4.800000042E-2,1.500000060E-2,9.843000412E0
6.911893380E-1,-5.805000290E-2,3.000000026E-3,9.838950157E0
6.936898750E-1,-7.200000435E-2,-1.050000079E-3,9.838950157E0
6.961901650E-1,-7.200000435E-2,-1.005000062E-2,9.843000412E0
6.986905480E-1,-6.495000422E-2,3.000000026E-3,9.843000412E0
7.011910860E-1,-7.695000619E-2,1.305000018E-2,9.865050316E0
7.036913960E-1,-7.395000011E-2,3.000000119E-2,9.859950066E0
7.061917790E-1,-7.200000435E-2,1.995000057E-2,9.841050148E0
7.086920830E-1,-6.495000422E-2,3.195000067E-2,9.838950157E0
7.111926200E-1,-6.000000238E-2,2.700000070E-2,9.834000587E0
7.136929300E-1,-4.095000029E-2,3.000000119E-2,9.831000328E0
7.161933120E-1,-6.000000238E-2,5.295000225E-2,9.831000328E0
7.186936220E-1,-5.295000225E-2,7.500000298E-2,9.846000671E0
7.211941580E-1,-4.605000094E-2,3.705000132E-2,9.847950935E0
7.236944680E-1,-4.800000042E-2,2.700000070E-2,9.847950935E0
7.261948510E-1,-3.900000080E-2,4.605000094E-2,9.847950935E0
7.286951650E-1,-6.000000238E-2,3.900000080E-2,9.850950241E0
7.311957020E-1,-5.805000290E-2,4.605000094E-2,9.846000671E0
7.336960120E-1,-5.805000290E-2,4.605000094E-2,9.841050148E0
7.361963940E-1,-4.800000042E-2,3.195000067E-2,9.834000587E0
7.386967280E-1,-3.900000080E-2,3.000000119E-2,9.838950157E0
7.411972640E-1,-5.295000225E-2,1.995000057E-2,9.847950935E0
7.436975740E-1,-6.495000422E-2,1.995000057E-2,9.838950157E0
7.461979570E-1,-6.000000238E-2,3.405000269E-2,9.835950851E0
7.486982710E-1,-7.905000448E-2,1.005000062E-2,9.843000412E0
7.511988080E-1,-5.505000427E-2,3.405000269E-2,9.846000671E0
7.536991180E-1,-3.600000218E-2,3.405000269E-2,9.841050148E0
7.561995000E-1,-6.000000238E-2,6.105000153E-2,9.847950935E0
7.586998100E-1,-4.800000042E-2,6.495000422E-2,9.835950851E0
7.612003410E-1,-3.900000080E-2,4.905000329E-2,9.829050064E0
7.637006510E-1,-4.095000029E-2,6.105000153E-2,9.826950073E0
7.662010340E-1,-1.500000060E-2,7.304999977E-2,9.835950851E0
7.687013430E-1,-1.905000024E-2,7.005000114E-2,9.847950935E0
7.712019130E-1,-2.700000070E-2,7.695000619E-2,9.847950935E0
7.737022230E-1,-1.500000060E-2,7.995000482E-2,9.859950066E0
7.762026050E-1,-3.000000026E-3,5.595000088E-2,9.835950851E0
7.787029150E-1,-1.695000008E-2,6.495000422E-2,9.838950157E0
7.812034610E-1,-1.500000060E-2,5.295000225E-2,9.835950851E0
7.837038480E-1,-1.905000024E-2,5.595000088E-2,9.835950851E0
7.862041560E-1,-1.695000008E-2,5.595000088E-2,9.850950241E0
7.887046920E-1,-1.695000008E-2,4.395000264E-2,9.850950241E0
7.912050020E-1,-2.205000073E-2,5.100000277E-2,9.843000412E0
7.937053840E-1,-1.905000024E-2,4.605000094E-2,9.834000587E0
7.962056940E-1,-2.205000073E-2,4.095000029E-2,9.835950851E0
7.987060020E-1,-2.400000021E-2,5.295000225E-2,9.834000587E0
8.012065380E-1,-2.895000204E-2,5.100000277E-2,9.841050148E0
8.037068190E-1,-3.105000220E-2,6.300000101E-2,9.855000496E0
8.062072020E-1,-7.050000131E-3,6.300000101E-2,9.835950851E0
8.087075110E-1,0.000000000E0,6.495000422E-2,9.831000328E0
8.112080480E-1,-4.950000439E-3,8.205000311E-2,9.823950768E0
8.137083570E-1,7.950000465E-3,7.500000298E-2,9.846000671E0
8.162087400E-1,1.050000079E-3,8.700000495E-2,9.843000412E0
8.187092790E-1,-3.000000026E-3,8.505000174E-2,9.838950157E0
8.212095880E-1,1.995000057E-2,8.700000495E-2,9.841050148E0
8.237099950E-1,3.900000080E-2,8.505000174E-2,9.853050232E0
8.262103050E-1,3.195000067E-2,8.895000070E-2,9.850950241E0
8.287108410E-1,3.705000132E-2,1.110000089E-1,9.858000755E0
8.312111510E-1,1.995000057E-2,7.304999977E-2,9.826950073E0
8.337115330E-1,4.695000127E-2,6.105000153E-2,9.846000671E0
8.362118430E-1,2.805000171E-2,4.605000094E-2,9.841050148E0
8.387123800E-1,1.305000018E-2,6.105000153E-2,9.853050232E0
8.412126890E-1,1.305000018E-2,7.005000114E-2,9.853050232E0
8.437129970E-1,-3.000000026E-3,5.595000088E-2,9.843000412E0
8.462133610E-1,1.995000057E-2,7.695000619E-2,9.834000587E0
8.487138990E-1,1.800000109E-2,6.300000101E-2,9.838950157E0
8.512142090E-1,1.800000109E-2,6.300000101E-2,9.843000412E0
8.537145910E-1,1.095000096E-2,5.595000088E-2,9.841050148E0
8.562151300E-1,2.805000171E-2,6.495000422E-2,9.838950157E0
8.587154400E-1,2.805000171E-2,8.895000070E-2,9.843000412E0
8.612157470E-1,4.200000316E-2,8.895000070E-2,9.831000328E0
8.637161300E-1,4.200000316E-2,8.895000070E-2,9.853050232E0
8.662164490E-1,4.905000329E-2,1.009500027E-1,9.838950157E0
8.687169850E-1,5.400000140E-2,9.705000371E-2,9.822000504E0
8.712172950E-1,5.595000088E-2,9.705000371E-2,9.853050232E0
8.737176770E-1,3.705000132E-2,9.405000508E-2,9.843000412E0
8.762179780E-1,3.705000132E-2,9.705000371E-2,9.831000328E0
8.787185140E-1,3.900000080E-2,1.090500057E-1,9.843000412E0
8.812188240E-1,4.200000316E-2,7.695000619E-2,9.838950157E0
8.837192070E-1,5.100000277E-2,8.505000174E-2,9.846000671E0
8.862195170E-1,4.200000316E-2,7.005000114E-2,9.843000412E0
8.887200430E-1,3.705000132E-2,5.805000290E-2,9.850950241E0
8.912203530E-1,1.305000018E-2,6.300000101E-2,9.847950935E0
8.937207350E-1,3.495000303E-2,6.795000285E-2,9.831000328E0
8.962210450E-1,2.295000106E-2,7.304999977E-2,9.847950935E0
8.987215470E-1,1.800000109E-2,6.495000422E-2,9.850950241E0
9.012218570E-1,1.605000161E-2,7.500000298E-2,9.846000671E0
9.037222400E-1,2.805000171E-2,9.705000371E-2,9.846000671E0
9.062225490E-1,3.705000132E-2,9.405000508E-2,9.826950073E0
9.087230860E-1,4.395000264E-2,7.695000619E-2,9.850950241E0
9.112233960E-1,2.805000171E-2,1.039500013E-1,9.841050148E0
9.137237780E-1,4.905000329E-2,1.129500046E-1,9.846000671E0
9.162240880E-1,3.705000132E-2,1.090500057E-1,9.834000587E0
9.187246240E-1,6.300000101E-2,1.060500070E-1,9.847950935E0
9.212249440E-1,8.295000345E-2,9.195000678E-2,9.834000587E0
9.237253270E-1,5.895000324E-2,8.505000174E-2,9.838950157E0
9.262256360E-1,4.905000329E-2,8.205000311E-2,9.850950241E0
9.287261730E-1,2.295000106E-2,9.195000678E-2,9.855000496E0
9.312265600E-1,4.695000127E-2,9.900000691E-2,9.829050064E0
9.337268670E-1,4.395000264E-2,8.895000070E-2,9.838950157E0
9.362274040E-1,2.295000106E-2,8.205000311E-2,9.846000671E0
9.387276890E-1,6.000000052E-3,6.495000422E-2,9.855000496E0
9.412280720E-1,1.050000079E-3,7.500000298E-2,9.841050148E0
9.437283820E-1,6.000000052E-3,6.300000101E-2,9.850950241E0
9.462289180E-1,7.950000465E-3,6.495000422E-2,9.846000671E0
9.487292280E-1,1.800000109E-2,7.304999977E-2,9.826950073E0
9.512296110E-1,2.295000106E-2,5.595000088E-2,9.834000587E0
9.537299200E-1,1.800000109E-2,8.205000311E-2,9.841050148E0
9.562304570E-1,1.995000057E-2,8.505000174E-2,9.847950935E0
9.587307660E-1,4.200000316E-2,1.060500070E-1,9.841050148E0
9.612311490E-1,2.505000122E-2,8.700000495E-2,9.841050148E0
9.637314590E-1,4.200000316E-2,8.505000174E-2,9.823950768E0
9.662317660E-1,4.200000316E-2,8.895000070E-2,9.846000671E0
9.687323030E-1,4.695000127E-2,1.129500046E-1,9.847950935E0
9.712327170E-1,6.105000153E-2,9.405000508E-2,9.841050148E0
9.737330250E-1,4.395000264E-2,9.705000371E-2,9.858000755E0
9.762335620E-1,3.195000067E-2,8.505000174E-2,9.838950157E0
9.787338710E-1,1.995000057E-2,7.005000114E-2,9.841050148E0
9.812342540E-1,0.000000000E0,6.300000101E-2,9.846000671E0
9.837345490E-1,7.950000465E-3,6.495000422E-2,9.843000412E0
9.862350850E-1,1.305000018E-2,8.505000174E-2,9.850950241E0
9.887353950E-1,0.000000000E0,6.300000101E-2,9.855000496E0
9.912357770E-1,1.050000079E-3,5.295000225E-2,9.831000328E0
9.937360580E-1,-3.000000026E-3,6.300000101E-2,9.843000412E0
9.962365950E-1,-1.500000060E-2,7.005000114E-2,9.850950241E0
9.987369040E-1,-1.500000060E-2,6.300000101E-2,9.846000671E0
1.001237287E0,-1.005000062E-2,7.005000114E-2,9.850950241E0
1.003737821E0,7.950000465E-3,7.304999977E-2,9.835950851E0
1.006238131E0,2.295000106E-2,6.495000422E-2,9.850950241E0
1.008738514E0,1.800000109E-2,7.500000298E-2,9.847950935E0
1.011238823E0,1.050000079E-3,7.304999977E-2,9.853050232E0
1.013739388E0,3.900000080E-2,7.500000298E-2,9.835950851E0
1.016239698E0,1.305000018E-2,7.304999977E-2,9.835950851E0
1.018740080E0,4.395000264E-2,6.795000285E-2,9.826950073E0
1.021240390E0,4.395000264E-2,6.795000285E-2,9.835950851E0
1.023740926E0,4.695000127E-2,7.695000619E-2,9.841050148E0
1.026241236E0,1.605000161E-2,6.495000422E-2,9.846000671E0
1.028741619E0,7.950000465E-3,6.105000153E-2,9.841050148E0
1.031241928E0,1.605000161E-2,3.705000132E-2,9.831000328E0
1.033742236E0,0.000000000E0,3.705000132E-2,9.843000412E0
1.036242773E0,-7.050000131E-3,4.605000094E-2,9.855000496E0
1.038743082E0,-1.695000008E-2,4.095000029E-2,9.859950066E0
1.041243465E0,-1.500000060E-2,3.195000067E-2,9.850950241E0
1.043744003E0,0.000000000E0,3.705000132E-2,9.838950157E0
1.046244313E0,-4.950000439E-3,3.705000132E-2,9.829050064E0
1.048744696E0,-1.500000060E-2,3.405000269E-2,9.834000587E0
1.051245005E0,-1.695000008E-2,3.900000080E-2,9.846000671E0
1.053745313E0,0.000000000E0,5.100000277E-2,9.850950241E0
1.056245870E0,1.605000161E-2,3.900000080E-2,9.847950935E0
1.058746179E0,4.050000105E-3,4.395000264E-2,9.846000671E0
1.061246562E0,2.505000122E-2,3.405000269E-2,9.834000587E0
1.063746872E0,2.295000106E-2,4.905000329E-2,9.843000412E0
1.066247436E0,4.395000264E-2,3.900000080E-2,9.823950768E0
1.068747746E0,3.195000067E-2,4.905000329E-2,9.846000671E0
1.071248128E0,3.195000067E-2,4.905000329E-2,9.858000755E0
1.073748438E0,3.900000080E-2,3.900000080E-2,9.843000412E0
1.076248965E0,2.805000171E-2,3.405000269E-2,9.846000671E0
1.078749275E0,1.605000161E-2,2.205000073E-2,9.853050232E0
1.081249889E0,1.800000109E-2,7.950000465E-3,9.843000412E0
1.083750198E0,-3.000000026E-3,6.000000052E-3,9.835950851E0
1.086250501E0,-1.695000008E-2,1.995000057E-2,9.853050232E0
1.088750884E0,-2.205000073E-2,6.000000052E-3,9.841050148E0
1.091251193E0,0.000000000E0,1.305000018E-2,9.843000412E0
1.093751730E0,7.950000465E-3,-3.000000026E-3,9.841050148E0
1.096252039E0,-2.205000073E-2,1.005000062E-2,9.838950157E0
1.098752436E0,-1.200000010E-2,1.005000062E-2,9.850950241E0
1.101252746E0,1.095000096E-2,1.005000062E-2,9.841050148E0
1.103753282E0,4.395000264E-2,-7.950000465E-3,9.846000671E0
1.106253592E0,1.995000057E-2,-7.950000465E-3,9.846000671E0
1.108753975E0,1.800000109E-2,1.800000109E-2,9.834000587E0
1.111254299E0,2.505000122E-2,-4.950000439E-3,9.838950157E0
1.113754836E0,2.805000171E-2,1.005000062E-2,9.855000496E0
1.116255145E0,4.905000329E-2,-1.005000062E-2,9.838950157E0
1.118755528E0,4.905000329E-2,-4.950000439E-3,9.829050064E0
1.121255814E0,2.295000106E-2,6.000000052E-3,9.843000412E0
1.123756350E0,7.950000465E-3,1.305000018E-2,9.846000671E0
1.126256660E0,1.095000096E-2,-1.305000018E-2,9.835950851E0
1.128757043E0,1.800000109E-2,-1.050000079E-3,9.835950851E0
1.131257347E0,7.950000465E-3,-1.500000060E-2,9.834000587E0
1.133757884E0,-1.500000060E-2,-4.950000439E-3,9.831000328E0
1.136258193E0,-2.205000073E-2,-1.005000062E-2,9.853050232E0
1.138758576E0,-2.700000070E-2,-1.695000008E-2,9.846000671E0
1.141258886E0,-1.695000008E-2,-1.500000060E-2,9.865050316E0
1.143759422E0,-1.200000010E-2,-2.895000204E-2,9.859950066E0
1.146259732E0,-4.950000439E-3,-1.305000018E-2,9.843000412E0
1.148760115E0,-4.950000439E-3,-2.700000070E-2,9.834000587E0
1.151260673E0,0.000000000E0,-2.505000122E-2,9.850950241E0
1.153760983E0,1.095000096E-2,-1.695000008E-2,9.846000671E0
1.156261365E0,1.995000057E-2,-1.500000060E-2,9.838950157E0
1.158761675E0,1.605000161E-2,-1.050000079E-3,9.853050232E0
1.161262211E0,1.605000161E-2,-2.895000204E-2,9.850950241E0
1.163762526E0,1.305000018E-2,-1.695000008E-2,9.834000587E0
1.166262909E0,2.295000106E-2,-1.050000079E-3,9.841050148E0
1.168763218E0,1.605000161E-2,-1.500000060E-2,9.846000671E0
1.171263755E0,7.950000465E-3,-1.500000060E-2,9.843000412E0
1.173764089E0,-4.950000439E-3,-1.500000060E-2,9.831000328E0
1.176264471E0,-1.005000062E-2,-2.505000122E-2,9.843000412E0
1.178764781E0,-1.695000008E-2,-2.700000070E-2,9.862950325E0
1.181265089E0,-3.600000218E-2,-1.695000008E-2,9.841050148E0
1.183765629E0,-3.405000269E-2,-3.405000269E-2,9.846000671E0
1.186266016E0,-3.105000220E-2,-1.005000062E-2,9.829050064E0
1.188766323E0,-3.405000269E-2,-3.705000132E-2,9.829050064E0
1.191266860E0,-5.100000277E-2,-2.895000204E-2,9.843000412E0
1.193767170E0,-4.605000094E-2,-3.405000269E-2,9.855000496E0
1.196267552E0,-4.605000094E-2,-1.695000008E-2,9.870000839E0
1.198767862E0,-5.505000427E-2,-3.405000269E-2,9.847950935E0
1.201268398E0,-1.200000010E-2,-3.705000132E-2,9.817050934E0
1.203768708E0,-3.000000026E-3,-3.900000080E-2,9.829050064E0
1.206269106E0,-1.005000062E-2,-2.205000073E-2,9.850950241E0
1.208769415E0,-1.500000060E-2,-1.500000060E-2,9.838950157E0
1.211269952E0,-7.050000131E-3,-1.305000018E-2,9.850950241E0
1.213770262E0,-3.105000220E-2,-1.995000057E-2,9.846000671E0
1.216270644E0,-2.700000070E-2,-1.305000018E-2,9.838950157E0
1.218770954E0,-3.600000218E-2,3.000000026E-3,9.850950241E0
1.221271490E0,-3.105000220E-2,-7.950000465E-3,9.835950851E0
1.223771877E0,-3.900000080E-2,-1.050000079E-3,9.846000671E0
1.226272180E0,-4.305000231E-2,-1.995000057E-2,9.838950157E0
1.228772716E0,-6.195000187E-2,-3.405000269E-2,9.829050064E0
1.231273026E0,-5.295000225E-2,-2.205000073E-2,9.862950325E0
1.233773408E0,-7.200000435E-2,-4.950000439E-3,9.841050148E0
1.236273718E0,-7.905000448E-2,-1.995000057E-2,9.859950066E0
1.238774260E0,-7.200000435E-2,-2.205000073E-2,9.858000755E0
1.241274569E0,-7.005000114E-2,-3.195000067E-2,9.850950241E0
1.243774877E0,-7.005000114E-2,-2.895000204E-2,9.855000496E0
1.246275260E0,-6.000000238E-2,-2.895000204E-2,9.850950241E0
1.248775583E0,-5.805000290E-2,-4.095000029E-2,9.835950851E0
1.251276120E0,-5.100000277E-2,-3.195000067E-2,9.850950241E0
1.253776430E0,-3.600000218E-2,-1.005000062E-2,9.843000412E0
1.256276812E0,-5.295000225E-2,-2.205000073E-2,9.838950157E0
1.258777132E0,-4.305000231E-2,-2.700000070E-2,9.850950241E0
1.261277668E0,-3.405000269E-2,-7.950000465E-3,9.843000412E0
1.263778055E0,-3.600000218E-2,-7.950000465E-3,9.829050064E0
1.266278363E0,-4.605000094E-2,-7.950000465E-3,9.853050232E0
1.268778899E0,-5.100000277E-2,-3.000000026E-3,9.862950325E0
1.271279194E0,-6.195000187E-2,6.000000052E-3,9.853050232E0
1.273779576E0,-6.495000422E-2,-4.950000439E-3,9.835950851E0
1.276279886E0,-7.695000619E-2,3.000000026E-3,9.846000671E0
1.278780423E0,-9.105000645E-2,-4.950000439E-3,9.829050064E0
1.281280722E0,-9.405000508E-2,3.000000026E-3,9.853050232E0
1.283781030E0,-8.895000070E-2,-1.005000062E-2,9.853050232E0
1.286281413E0,-8.895000070E-2,-1.305000018E-2,9.834000587E0
1.288781722E0,-7.395000011E-2,-1.695000008E-2,9.846000671E0
1.291282274E0,-7.905000448E-2,-1.305000018E-2,9.850950241E0
1.293782583E0,-8.400000632E-2,-1.995000057E-2,9.850950241E0
1.296282966E0,-7.200000435E-2,1.050000079E-3,9.847950935E0
1.298783505E0,-6.195000187E-2,-2.895000204E-2,9.843000412E0
1.301283814E0,-4.800000042E-2,-3.195000067E-2,9.846000671E0
1.303784187E0,-2.700000070E-2,1.050000079E-3,9.846000671E0
1.306284497E0,-3.600000218E-2,1.050000079E-3,9.853050232E0
1.308785033E0,-4.605000094E-2,1.050000079E-3,9.835950851E0
1.311285343E0,-2.400000021E-2,-1.050000079E-3,9.838950157E0
1.313785716E0,-3.105000220E-2,-7.950000465E-3,9.829050064E0
1.316286026E0,-3.600000218E-2,3.000000026E-3,9.841050148E0
1.318786563E0,-5.295000225E-2,-1.050000079E-3,9.846000671E0
1.321286872E0,-7.695000619E-2,1.800000109E-2,9.841050148E0
1.323787250E0,-7.905000448E-2,1.305000018E-2,9.841050148E0
1.326287560E0,-7.395000011E-2,2.700000070E-2,9.850950241E0
1.328787867E0,-5.505000427E-2,1.500000060E-2,9.847950935E0
1.331288404E0,-9.600000083E-2,7.950000465E-3,9.847950935E0
1.333788790E0,-8.595000207E-2,3.195000067E-2,9.858000755E0
1.336289337E0,-6.195000187E-2,1.005000062E-2,9.855000496E0
1.338789647E0,-6.705000252E-2,7.950000465E-3,9.846000671E0
1.341290029E0,-5.805000290E-2,1.800000109E-2,9.838950157E0
1.343790339E0,-4.095000029E-2,1.050000079E-3,9.855000496E0
1.346290622E0,-4.800000042E-2,1.800000109E-2,9.846000671E0
1.348791158E0,-3.600000218E-2,3.000000026E-3,9.850950241E0
1.351291468E0,-2.895000204E-2,1.050000079E-3,9.841050148E0
1.353791850E0,-2.400000021E-2,1.050000079E-3,9.853050232E0
1.356292160E0,-7.050000131E-3,3.405000269E-2,9.838950157E0
1.358792696E0,-1.905000024E-2,3.405000269E-2,9.850950241E0
1.361293006E0,-1.500000060E-2,2.205000073E-2,9.853050232E0
1.363793389E0,0.000000000E0,2.205000073E-2,9.834000587E0
1.366293698E0,-2.895000204E-2,4.395000264E-2,9.838950157E0
1.368794235E0,-1.905000024E-2,3.405000269E-2,9.826950073E0
1.371294622E0,-3.405000269E-2,4.395000264E-2,9.847950935E0
1.373794929E0,-3.600000218E-2,3.405000269E-2,9.847950935E0
1.376295452E0,-3.900000080E-2,5.295000225E-2,9.841050148E0
1.378795761E0,-3.405000269E-2,4.395000264E-2,9.841050148E0
1.381296144E0,-4.605000094E-2,4.395000264E-2,9.847950935E0
1.383796454E0,-3.105000220E-2,3.405000269E-2,9.838950157E0
1.386297000E0,-1.905000024E-2,1.305000018E-2,9.843000412E0
1.388797310E0,-2.205000073E-2,1.800000109E-2,9.841050148E0
1.391297693E0,-3.600000218E-2,4.605000094E-2,9.841050148E0
1.393798002E0,0.000000000E0,3.405000269E-2,9.859950066E0
1.396298539E0,-1.695000008E-2,2.700000070E-2,9.838950157E0
1.398798852E0,2.295000106E-2,2.505000122E-2,9.834000587E0
1.401299235E0,2.505000122E-2,3.405000269E-2,9.838950157E0
1.403799545E0,2.505000122E-2,3.705000132E-2,9.835950851E0
1.406300081E0,1.050000079E-3,4.605000094E-2,9.846000671E0
1.408800377E0,1.605000161E-2,4.905000329E-2,9.858000755E0
1.411300760E0,2.805000171E-2,4.905000329E-2,9.835950851E0
1.413801069E0,3.195000067E-2,7.695000619E-2,9.846000671E0
1.416301606E0,3.495000303E-2,8.895000070E-2,9.841050148E0
1.418801915E0,7.950000465E-3,9.705000371E-2,9.838950157E0
1.421302298E0,-2.205000073E-2,9.900000691E-2,9.846000671E0
1.423802608E0,-1.200000010E-2,9.195000678E-2,9.831000328E0
1.426303144E0,-4.950000439E-3,9.705000371E-2,9.850950241E0
1.428803454E0,-4.950000439E-3,9.195000678E-2,9.855000496E0
1.431303836E0,-2.895000204E-2,8.895000070E-2,9.829050064E0
1.433804146E0,-2.205000073E-2,1.009500027E-1,9.850950241E0
1.436304683E0,-1.500000060E-2,8.700000495E-2,9.835950851E0
1.438804992E0,4.050000105E-3,1.009500027E-1,9.843000412E0
1.441305394E0,4.050000105E-3,9.405000508E-2,9.853050232E0
1.443805932E0,3.000000119E-2,1.009500027E-1,9.834000587E0
1.446306242E0,1.995000057E-2,1.230000034E-1,9.865050316E0
1.448806625E0,3.495000303E-2,1.159500033E-1,9.865050316E0
1.451306934E0,3.900000080E-2,1.210500076E-1,9.850950241E0
1.453807242E0,4.395000264E-2,1.230000034E-1,9.853050232E0
1.456307779E0,4.695000127E-2,1.230000034E-1,9.834000587E0
1.458808088E0,3.495000303E-2,1.210500076E-1,9.843000412E0
1.461308481E0,3.900000080E-2,1.350000054E-1,9.835950851E0
1.463808791E0,3.900000080E-2,1.369500011E-1,9.843000412E0
1.466309327E0,3.705000132E-2,1.420500129E-1,9.846000671E0
1.468809637E0,7.950000465E-3,1.369500011E-1,9.831000328E0
1.471310033E0,0.000000000E0,1.469999999E-1,9.847950935E0
1.473810572E0,1.605000161E-2,1.399500072E-1,9.843000412E0
1.476310882E0,-4.950000439E-3,1.420500129E-1,9.835950851E0
1.478811264E0,1.095000096E-2,1.249500066E-1,9.829050064E0
1.481311574E0,1.800000109E-2,1.159500033E-1,9.853050232E0
1.483812110E0,4.905000329E-2,1.249500066E-1,9.853050232E0
1.486312420E0,5.595000088E-2,1.009500027E-1,9.838950157E0
1.488812803E0,8.295000345E-2,1.090500057E-1,9.834000587E0
1.491313112E0,4.395000264E-2,1.090500057E-1,9.846000671E0
1.493813649E0,6.300000101E-2,1.110000089E-1,9.853050232E0
1.496313959E0,9.000000358E-2,9.900000691E-2,9.829050064E0
1.498814341E0,1.110000089E-1,7.500000298E-2,9.841050148E0
1.501314651E0,1.230000034E-1,1.090500057E-1,9.829050064E0
1.503815187E0,1.159500033E-1,8.700000495E-2,9.847950935E0
1.506315497E0,1.039500013E-1,7.695000619E-2,9.843000412E0
1.508815880E0,1.180500090E-1,8.205000311E-2,9.841050148E0
1.511316189E0,1.159500033E-1,7.695000619E-2,9.831000328E0
1.513816726E0,7.995000482E-2,6.495000422E-2,9.817050934E0
1.516317041E0,9.000000358E-2,9.405000508E-2,9.841050148E0
1.518817423E0,7.500000298E-2,7.500000298E-2,9.862950325E0
1.521317733E0,6.300000101E-2,8.205000311E-2,9.859950066E0
1.523818269E0,7.500000298E-2,6.495000422E-2,9.846000671E0
1.526318564E0,9.000000358E-2,5.805000290E-2,9.834000587E0
1.528818947E0,7.304999977E-2,4.905000329E-2,9.834000587E0
1.531319256E0,6.300000101E-2,4.395000264E-2,9.867000580E0
1.533819793E0,8.295000345E-2,3.195000067E-2,9.838950157E0
1.536320103E0,8.295000345E-2,3.705000132E-2,9.846000671E0
1.538820485E0,9.195000678E-2,2.505000122E-2,9.847950935E0
1.541321024E0,9.705000371E-2,3.705000132E-2,9.847950935E0
1.543821333E0,9.705000371E-2,3.900000080E-2,9.847950935E0
1.546321716E0,9.900000691E-2,4.395000264E-2,9.858000755E0
1.548822036E0,1.159500033E-1,3.195000067E-2,9.847950935E0
1.551322572E0,1.159500033E-1,4.905000329E-2,9.841050148E0
1.553822882E0,1.230000034E-1,3.705000132E-2,9.841050148E0
1.556323189E0,1.039500013E-1,5.100000277E-2,9.841050148E0
1.558823572E0,8.700000495E-2,3.195000067E-2,9.847950935E0
1.561323882E0,8.505000174E-2,5.295000225E-2,9.841050148E0
1.563824418E0,9.000000358E-2,4.095000029E-2,9.870000839E0
1.566324728E0,8.505000174E-2,1.005000062E-2,9.865050316E0
1.568825091E0,6.599999964E-2,7.950000465E-3,9.870000839E0
1.571325400E0,7.800000161E-2,-1.050000079E-3,9.841050148E0
1.573825937E0,6.105000153E-2,3.195000067E-2,9.829050064E0
1.576326246E0,4.695000127E-2,5.295000225E-2,9.847950935E0
1.578826629E0,2.805000171E-2,7.005000114E-2,9.843000412E0
1.581327192E0,3.900000080E-2,5.805000290E-2,9.835950851E0
1.583827501E0,4.395000264E-2,5.595000088E-2,9.859950066E0
1.586327884E0,5.595000088E-2,4.905000329E-2,9.853050232E0
1.588828194E0,7.800000161E-2,6.105000153E-2,9.847950935E0
1.591328730E0,5.400000140E-2,5.100000277E-2,9.855000496E0
1.593829040E0,5.895000324E-2,6.000000052E-3,9.846000671E0
1.596329422E0,9.495000541E-2,1.305000018E-2,9.835950851E0
1.598829732E0,9.195000678E-2,2.505000122E-2,9.822000504E0
1.601330269E0,6.795000285E-2,3.195000067E-2,9.829050064E0
1.603830569E0,4.905000329E-2,5.595000088E-2,9.826950073E0
1.606330952E0,4.695000127E-2,3.405000269E-2,9.867000580E0
1.608831262E0,3.705000132E-2,3.705000132E-2,9.855000496E0
1.611331798E0,2.805000171E-2,3.705000132E-2,9.862950325E0
1.613832165E0,3.000000119E-2,4.905000329E-2,9.855000496E0
1.616332472E0,1.305000018E-2,3.705000132E-2,9.841050148E0
1.618833009E0,7.950000465E-3,4.095000029E-2,9.846000671E0
1.621333318E0,1.095000096E-2,1.305000018E-2,9.835950851E0
1.623833706E0,2.805000171E-2,3.000000026E-3,9.814950943E0
1.626334016E0,3.705000132E-2,-4.950000439E-3,9.838950157E0
1.628834324E0,1.995000057E-2,-2.205000073E-2,9.838950157E0
1.631334860E0,3.705000132E-2,-7.950000465E-3,9.871950150E0
1.633835170E0,5.400000140E-2,-1.695000008E-2,9.871950150E0
1.636335557E0,7.095000148E-2,-1.995000057E-2,9.859950066E0
1.638835867E0,6.795000285E-2,-3.900000080E-2,9.855000496E0
1.641336403E0,7.304999977E-2,-4.395000264E-2,9.843000412E0
1.643836713E0,7.800000161E-2,-4.605000094E-2,9.831000328E0
1.646337072E0,9.000000358E-2,-4.605000094E-2,9.838950157E0
1.648837610E0,8.505000174E-2,-6.795000285E-2,9.829050064E0
1.651337920E0,7.500000298E-2,-5.595000088E-2,9.862950325E0
1.653838303E0,6.105000153E-2,-5.295000225E-2,9.847950935E0
1.656338607E0,5.100000277E-2,-3.705000132E-2,9.867000580E0
1.658838915E0,4.200000316E-2,-5.100000277E-2,9.850950241E0
1.661339451E0,3.705000132E-2,-4.800000042E-2,9.865050316E0
1.663839761E0,1.305000018E-2,-6.000000238E-2,9.853050232E0
1.666340144E0,1.305000018E-2,-6.795000285E-2,9.835950851E0
1.668840453E0,-3.000000026E-3,-7.005000114E-2,9.841050148E0
1.671340990E0,1.605000161E-2,-6.000000238E-2,9.834000587E0
1.673841300E0,1.800000109E-2,-6.000000238E-2,9.838950157E0
1.676341677E0,6.000000052E-3,-7.200000435E-2,9.853050232E0
1.678841987E0,0.000000000E0,-7.695000619E-2,9.847950935E0
1.681342523E0,3.000000119E-2,-8.205000311E-2,9.855000496E0
1.683842910E0,4.200000316E-2,-6.300000101E-2,9.859950066E0
1.686343218E0,2.805000171E-2,-6.300000101E-2,9.853050232E0
1.688843749E0,1.305000018E-2,-6.495000422E-2,9.831000328E0
1.691344059E0,3.195000067E-2,-6.795000285E-2,9.838950157E0
1.693844442E0,3.495000303E-2,-7.995000482E-2,9.831000328E0
1.696344751E0,1.995000057E-2,-5.595000088E-2,9.831000328E0
1.698845284E0,2.295000106E-2,-2.205000073E-2,9.838950157E0
1.701345593E0,6.000000052E-3,-2.505000122E-2,9.862950325E0
1.703845976E0,-1.500000060E-2,6.000000052E-3,9.867000580E0
1.706346286E0,-1.200000010E-2,-4.950000439E-3,9.847950935E0
1.708846822E0,-1.500000060E-2,-4.950000439E-3,9.841050148E0
1.711347132E0,-3.600000218E-2,1.005000062E-2,9.831000328E0
1.713847440E0,-4.095000029E-2,1.050000079E-3,9.838950157E0
1.716348053E0,-3.105000220E-2,1.005000062E-2,9.834000587E0
1.718848353E0,-5.100000277E-2,-1.695000008E-2,9.847950935E0
1.721348660E0,-2.700000070E-2,1.050000079E-3,9.826950073E0
1.723849043E0,-3.900000080E-2,3.000000026E-3,9.850950241E0
1.726349353E0,-2.895000204E-2,7.950000465E-3,9.847950935E0
1.728849889E0,-3.405000269E-2,3.000000026E-3,9.867000580E0
1.731350199E0,-2.205000073E-2,-1.305000018E-2,9.870000839E0
1.733850581E0,-4.950000439E-3,-2.505000122E-2,9.858000755E0
1.736350891E0,4.050000105E-3,-2.205000073E-2,9.823950768E0
1.738851418E0,-4.950000439E-3,-3.195000067E-2,9.846000671E0
1.741351727E0,7.950000465E-3,-4.395000264E-2,9.817050934E0
1.743852110E0,1.800000109E-2,-3.405000269E-2,9.841050148E0
1.746352420E0,1.095000096E-2,-2.895000204E-2,9.850950241E0
1.748852956E0,0.000000000E0,-5.100000277E-2,9.850950241E0
1.751353319E0,6.000000052E-3,-6.000000238E-2,9.859950066E0
1.753853626E0,0.000000000E0,-6.000000238E-2,9.841050148E0
1.756354163E0,-3.000000026E-3,-5.295000225E-2,9.831000328E0
1.758854473E0,-2.205000073E-2,-6.000000238E-2,9.838950157E0
1.761354841E0,-2.700000070E-2,-6.495000422E-2,9.831000328E0
1.763855151E0,-1.905000024E-2,-7.200000435E-2,9.817050934E0
1.766355687E0,-1.905000024E-2,-6.795000285E-2,9.835950851E0
1.768855997E0,-1.500000060E-2,-5.595000088E-2,9.834000587E0
1.771356380E0,-2.205000073E-2,-5.595000088E-2,9.862950325E0
1.773856694E0,-3.000000026E-3,-6.000000238E-2,9.853050232E0
1.776357002E0,-1.005000062E-2,-5.295000225E-2,9.838950157E0
1.778857539E0,6.000000052E-3,-7.500000298E-2,9.841050148E0
1.781357848E0,2.805000171E-2,-6.795000285E-2,9.835950851E0
1.783858231E0,4.905000329E-2,-6.300000101E-2,9.834000587E0
1.786358769E0,3.705000132E-2,-5.295000225E-2,9.846000671E0
1.788859079E0,5.400000140E-2,-5.805000290E-2,9.838950157E0
1.791359462E0,5.100000277E-2,-2.895000204E-2,9.850950241E0
1.793859795E0,3.900000080E-2,-1.500000060E-2,9.858000755E0
1.796360332E0,4.200000316E-2,1.050000079E-3,9.853050232E0
1.798860642E0,2.295000106E-2,1.800000109E-2,9.838950157E0
1.801361024E0,3.195000067E-2,4.095000029E-2,9.843000412E0
1.803861334E0,1.605000161E-2,1.500000060E-2,9.823950768E0
1.806361855E0,6.000000052E-3,2.700000070E-2,9.847950935E0
1.808862165E0,0.000000000E0,4.605000094E-2,9.831000328E0
1.811362548E0,-7.050000131E-3,6.495000422E-2,9.823950768E0
1.813862857E0,0.000000000E0,6.300000101E-2,9.853050232E0
1.816363409E0,-1.500000060E-2,7.500000298E-2,9.862950325E0
1.818863795E0,-1.500000060E-2,4.095000029E-2,9.846000671E0
1.821364103E0,-7.050000131E-3,5.295000225E-2,9.865050316E0
1.823864640E0,-1.500000060E-2,4.905000329E-2,9.835950851E0
1.826364963E0,-4.950000439E-3,6.795000285E-2,9.831000328E0
1.828865346E0,-3.000000026E-3,7.005000114E-2,9.838950157E0
1.831365656E0,-3.000000026E-3,4.395000264E-2,9.841050148E0
1.833865963E0,-1.005000062E-2,7.500000298E-2,9.846000671E0
1.836366500E0,-4.095000029E-2,7.304999977E-2,9.855000496E0
1.838866814E0,-3.000000026E-3,7.695000619E-2,9.846000671E0
1.841367197E0,0.000000000E0,8.700000495E-2,9.846000671E0
1.843867507E0,-2.400000021E-2,1.249500066E-1,9.859950066E0
1.846368043E0,-7.050000131E-3,1.230000034E-1,9.859950066E0
1.848868358E0,-3.000000026E-3,1.159500033E-1,9.841050148E0
1.851368741E0,1.095000096E-2,1.180500090E-1,9.834000587E0
1.853869279E0,0.000000000E0,1.129500046E-1,9.817050934E0
1.856369589E0,0.000000000E0,1.180500090E-1,9.841050148E0
1.858869990E0,-1.500000060E-2,1.060500070E-1,9.838950157E0
1.861370300E0,-1.905000024E-2,1.230000034E-1,9.835950851E0
1.863870837E0,-1.200000010E-2,1.039500013E-1,9.843000412E0
1.866371146E0,-1.200000010E-2,1.129500046E-1,9.843000412E0
1.868871539E0,-1.005000062E-2,8.895000070E-2,9.858000755E0
1.871371849E0,-7.050000131E-3,9.900000691E-2,9.843000412E0
1.873872385E0,1.995000057E-2,9.705000371E-2,9.823950768E0
1.876372695E0,3.705000132E-2,9.405000508E-2,9.823950768E0
1.878873062E0,7.995000482E-2,8.895000070E-2,9.829050064E0
1.881373372E0,9.195000678E-2,8.700000495E-2,9.843000412E0
1.883873908E0,1.020000055E-1,8.700000495E-2,9.831000328E0
1.886374218E0,1.180500090E-1,9.405000508E-2,9.855000496E0
1.888874601E0,1.399500072E-1,1.090500057E-1,9.859950066E0
1.891374930E0,1.260000020E-1,1.060500070E-1,9.858000755E0
1.893875466E0,1.180500090E-1,1.039500013E-1,9.850950241E0
1.896375776E0,1.159500033E-1,9.900000691E-2,9.838950157E0
1.898876158E0,1.069500074E-1,1.129500046E-1,9.838950157E0
1.901376468E0,6.795000285E-2,1.039500013E-1,9.826950073E0
1.903877004E0,9.000000358E-2,1.039500013E-1,9.859950066E0
1.906377314E0,8.295000345E-2,1.009500027E-1,9.826950073E0
1.908877697E0,8.700000495E-2,1.249500066E-1,9.831000328E0
1.911378021E0,6.795000285E-2,1.350000054E-1,9.858000755E0
1.913878558E0,6.599999964E-2,1.399500072E-1,9.847950935E0
1.916378868E0,7.995000482E-2,1.489500105E-1,9.847950935E0
1.918879250E0,7.995000482E-2,1.350000054E-1,9.850950241E0
1.921379789E0,1.180500090E-1,1.319999993E-1,9.838950157E0
1.923880093E0,1.350000054E-1,1.489500105E-1,9.838950157E0
1.926380476E0,1.230000034E-1,1.609500051E-1,9.829050064E0
1.928880786E0,1.330500096E-1,1.849500090E-1,9.823950768E0
1.931381322E0,1.570500135E-1,1.639500111E-1,9.850950241E0
1.933881646E0,1.690500081E-1,1.879500151E-1,9.846000671E0
1.936382029E0,1.540500075E-1,1.999500096E-1,9.847950935E0
1.938882338E0,1.710000038E-1,1.969500035E-1,9.855000496E0
1.941382646E0,1.930500120E-1,2.260500044E-1,9.829050064E0
1.943883173E0,1.830000132E-1,2.230500132E-1,9.838950157E0
1.946383483E0,1.830000132E-1,2.329500169E-1,9.841050148E0
1.948883866E0,1.660500020E-1,2.260500044E-1,9.838950157E0
1.951384175E0,1.710000038E-1,2.590500116E-1,9.834000587E0
1.953884712E0,1.860000044E-1,2.590500116E-1,9.835950851E0
1.956385103E0,1.740000099E-1,2.689500153E-1,9.843000412E0
1.958885410E0,1.570500135E-1,2.639999986E-1,9.835950851E0
1.961385947E0,1.810500026E-1,2.710500062E-1,9.835950851E0
1.963886256E0,1.639500111E-1,2.639999986E-1,9.838950157E0
1.966386634E0,1.540500075E-1,2.310000062E-1,9.835950851E0
1.968886944E0,1.500000060E-1,2.310000062E-1,9.838950157E0
1.971387480E0,1.330500096E-1,2.040000111E-1,9.859950066E0
1.973887790E0,1.260000020E-1,1.999500096E-1,9.841050148E0
1.976388172E0,1.260000020E-1,2.020500153E-1,9.835950851E0
1.978888492E0,1.230000034E-1,1.849500090E-1,9.843000412E0
1.981389029E0,1.450500041E-1,1.780500114E-1,9.850950241E0
1.983889338E0,1.330500096E-1,1.780500114E-1,9.850950241E0
1.986389721E0,1.350000054E-1,1.639500111E-1,9.855000496E0
1.988890259E0,1.230000034E-1,1.560000032E-1,9.853050232E0
1.991390569E0,1.330500096E-1,1.440000087E-1,9.838950157E0
1.993890952E0,1.469999999E-1,1.319999993E-1,9.814950943E0
1.996391261E0,1.540500075E-1,1.319999993E-1,9.819000244E0
1.998891569E0,1.469999999E-1,1.369500011E-1,9.843000412E0
2.001392077E0,1.500000060E-1,1.249500066E-1,9.831000328E0
2.003892386E0,1.590000093E-1,1.129500046E-1,9.853050232E0
2.006392769E0,1.399500072E-1,8.895000070E-2,9.846000671E0
2.008893079E0,1.620000005E-1,9.405000508E-2,9.847950935E0
2.011393610E0,1.590000093E-1,9.405000508E-2,9.865050316E0
2.013893920E0,1.999500096E-1,8.205000311E-2,9.838950157E0
2.016394302E0,1.969500035E-1,5.805000290E-2,9.826950073E0
2.018894612E0,1.900500059E-1,5.295000225E-2,9.829050064E0
2.021395149E0,2.050500065E-1,6.795000285E-2,9.859950066E0
2.023895535E0,2.209500074E-1,5.100000277E-2,9.846000671E0
2.026395843E0,2.190000117E-1,4.605000094E-2,9.841050148E0
2.028896151E0,2.260500044E-1,5.595000088E-2,9.846000671E0
2.031396658E0,2.239500135E-1,2.205000073E-2,9.841050148E0
2.033897045E0,2.329500169E-1,4.095000029E-2,9.847950935E0
2.036397352E0,2.190000117E-1,4.095000029E-2,9.838950157E0
2.038897889E0,2.290500104E-1,3.405000269E-2,9.838950157E0
2.041398219E0,2.089500129E-1,3.705000132E-2,9.831000328E0
2.043898601E0,2.050500065E-1,2.700000070E-2,9.829050064E0
2.046398911E0,1.830000132E-1,2.700000070E-2,9.846000671E0
2.048899219E0,1.810500026E-1,3.705000132E-2,9.838950157E0
2.051399755E0,1.810500026E-1,5.595000088E-2,9.846000671E0
2.053900165E0,1.519500017E-1,2.700000070E-2,9.841050148E0
2.056400701E0,1.300500035E-1,1.995000057E-2,9.850950241E0
2.058901011E0,1.450500041E-1,1.995000057E-2,9.858000755E0
2.061401319E0,1.300500035E-1,1.500000060E-2,9.838950157E0
2.063901682E0,1.260000020E-1,1.800000109E-2,9.835950851E0
2.066401992E0,1.330500096E-1,1.800000109E-2,9.835950851E0
2.068902528E0,1.330500096E-1,1.305000018E-2,9.829050064E0
2.071402838E0,1.110000089E-1,-1.050000079E-3,9.847950935E0
2.073903221E0,1.140000075E-1,1.005000062E-2,9.859950066E0
2.076403535E0,1.090500057E-1,-1.995000057E-2,9.847950935E0
2.078904072E0,1.159500033E-1,7.950000465E-3,9.859950066E0
2.081404382E0,9.900000691E-2,1.050000079E-3,9.826950073E0
2.083904764E0,7.800000161E-2,3.000000026E-3,9.817050934E0
2.086405074E0,6.300000101E-2,-4.950000439E-3,9.850950241E0
2.088905620E0,5.400000140E-2,-1.050000079E-3,9.858000755E0
2.091405930E0,4.395000264E-2,-1.695000008E-2,9.843000412E0
2.093906313E0,1.095000096E-2,-7.950000465E-3,9.846000671E0
2.096406622E0,6.000000052E-3,1.050000079E-3,9.846000671E0
2.098907173E0,-1.905000024E-2,-7.950000465E-3,9.835950851E0
2.101407482E0,-2.700000070E-2,-1.305000018E-2,9.850950241E0
2.103907865E0,-4.095000029E-2,-2.505000122E-2,9.865050316E0
2.106408175E0,-4.305000231E-2,-1.995000057E-2,9.850950241E0
2.108908696E0,-5.805000290E-2,-2.895000204E-2,9.846000671E0
2.111409006E0,-5.295000225E-2,-5.100000277E-2,9.831000328E0
2.113909389E0,-6.000000238E-2,-5.595000088E-2,9.831000328E0
2.116409698E0,-5.805000290E-2,-5.805000290E-2,9.831000328E0
2.118910245E0,-4.800000042E-2,-6.795000285E-2,9.843000412E0
2.121410631E0,-7.005000114E-2,-5.805000290E-2,9.855000496E0
2.123910939E0,-6.000000238E-2,-6.795000285E-2,9.846000671E0
2.126411476E0,-6.495000422E-2,-8.700000495E-2,9.846000671E0
2.128911780E0,-6.495000422E-2,-8.895000070E-2,9.841050148E0
2.131412163E0,-9.105000645E-2,-8.205000311E-2,9.838950157E0
2.133912473E0,-9.600000083E-2,-6.795000285E-2,9.843000412E0
2.136413009E0,-9.600000083E-2,-8.205000311E-2,9.843000412E0
2.138913295E0,-1.030500084E-1,-6.300000101E-2,9.835950851E0
2.141413677E0,-9.795000404E-2,-5.595000088E-2,9.835950851E0
2.143913987E0,-1.180500090E-1,-4.800000042E-2,9.862950325E0
2.146414295E0,-1.390500069E-1,-5.295000225E-2,9.853050232E0
2.148914831E0,-1.390500069E-1,-4.800000042E-2,9.846000671E0
2.151415127E0,-1.369500011E-1,-3.900000080E-2,9.829050064E0
2.153915510E0,-1.390500069E-1,-3.705000132E-2,9.846000671E0
2.156416048E0,-1.180500090E-1,-5.100000277E-2,9.838950157E0
2.158916358E0,-1.249500066E-1,-5.805000290E-2,9.835950851E0
2.161416745E0,-1.180500090E-1,-4.095000029E-2,9.826950073E0
2.163917055E0,-1.180500090E-1,-4.605000094E-2,9.843000412E0
2.166417591E0,-9.105000645E-2,-5.595000088E-2,9.855000496E0
2.168917901E0,-9.600000083E-2,-4.095000029E-2,9.841050148E0
2.171418312E0,-7.005000114E-2,-5.805000290E-2,9.847950935E0
2.173918621E0,-6.000000238E-2,-7.995000482E-2,9.838950157E0
2.176419158E0,-5.505000427E-2,-5.595000088E-2,9.858000755E0
2.178919468E0,-5.505000427E-2,-4.095000029E-2,9.843000412E0
2.181419850E0,-5.805000290E-2,-3.900000080E-2,9.823950768E0
2.183920155E0,-6.195000187E-2,-4.095000029E-2,9.841050148E0
2.186420691E0,-4.095000029E-2,-3.405000269E-2,9.829050064E0
2.188921078E0,-4.605000094E-2,-2.505000122E-2,9.831000328E0
2.191421386E0,-5.295000225E-2,3.000000026E-3,9.855000496E0
2.193921913E0,-6.705000252E-2,-4.950000439E-3,9.841050148E0
2.196422223E0,-7.200000435E-2,1.305000018E-2,9.843000412E0
2.198922606E0,-6.195000187E-2,1.005000062E-2,9.850950241E0
2.201422915E0,-6.195000187E-2,1.050000079E-3,9.847950935E0
2.203923461E0,-5.505000427E-2,-3.000000026E-3,9.847950935E0
2.206423770E0,-5.295000225E-2,-1.305000018E-2,9.858000755E0
2.208924153E0,-6.705000252E-2,-3.000000026E-3,9.829050064E0
2.211424463E0,-4.800000042E-2,-1.995000057E-2,9.838950157E0
2.213924966E0,-4.605000094E-2,-1.305000018E-2,9.853050232E0
2.216425276E0,-5.505000427E-2,-2.205000073E-2,9.847950935E0
2.218925584E0,-5.100000277E-2,-1.500000060E-2,9.855000496E0
2.221425966E0,-7.200000435E-2,-2.700000070E-2,9.855000496E0
2.223926505E0,-5.100000277E-2,-3.900000080E-2,9.862950325E0
2.226426814E0,-4.305000231E-2,-3.405000269E-2,9.838950157E0
2.228927197E0,-6.000000238E-2,-2.895000204E-2,9.843000412E0
2.231427507E0,-5.100000277E-2,-4.395000264E-2,9.850950241E0
2.233928043E0,-6.495000422E-2,-2.700000070E-2,9.853050232E0
2.236428358E0,-6.000000238E-2,-3.405000269E-2,9.846000671E0
2.238928740E0,-5.505000427E-2,-1.995000057E-2,9.846000671E0
2.241429050E0,-6.705000252E-2,-2.505000122E-2,9.847950935E0
2.243929587E0,-7.200000435E-2,-2.205000073E-2,9.855000496E0
2.246429876E0,-7.905000448E-2,-1.500000060E-2,9.841050148E0
2.248930259E0,-6.705000252E-2,-1.050000079E-3,9.843000412E0
2.251430569E0,-8.595000207E-2,-1.305000018E-2,9.841050148E0
2.253931105E0,-7.395000011E-2,-2.700000070E-2,9.843000412E0
2.256431415E0,-7.395000011E-2,-4.395000264E-2,9.847950935E0
2.258931797E0,-9.405000508E-2,-3.705000132E-2,9.835950851E0
2.261432336E0,-9.105000645E-2,-5.595000088E-2,9.858000755E0
2.263932646E0,-8.400000632E-2,-4.605000094E-2,9.853050232E0
2.266433028E0,-9.600000083E-2,-5.100000277E-2,9.858000755E0
2.268933338E0,-9.405000508E-2,-5.295000225E-2,9.841050148E0
2.271433646E0,-8.895000070E-2,-6.495000422E-2,9.858000755E0
2.273934182E0,-8.400000632E-2,-7.695000619E-2,9.853050232E0
2.276434492E0,-8.205000311E-2,-6.300000101E-2,9.843000412E0
2.278934903E0,-8.595000207E-2,-6.000000238E-2,9.838950157E0
2.281435213E0,-7.395000011E-2,-4.605000094E-2,9.846000671E0
2.283935750E0,-6.705000252E-2,-6.300000101E-2,9.843000412E0
2.286436059E0,-7.005000114E-2,-4.605000094E-2,9.853050232E0
2.288936433E0,-5.100000277E-2,-3.900000080E-2,9.843000412E0
2.291436971E0,-6.000000238E-2,-4.095000029E-2,9.853050232E0
2.293937281E0,-5.805000290E-2,-2.505000122E-2,9.853050232E0
2.296437664E0,-5.100000277E-2,-1.995000057E-2,9.847950935E0
2.298937987E0,-4.305000231E-2,-3.900000080E-2,9.834000587E0
2.301438524E0,-3.600000218E-2,-2.895000204E-2,9.855000496E0
2.303938834E0,-4.095000029E-2,-3.705000132E-2,9.843000412E0
2.306439216E0,-3.600000218E-2,-1.500000060E-2,9.843000412E0
2.308939526E0,-1.695000008E-2,-3.195000067E-2,9.846000671E0
2.311440062E0,-2.205000073E-2,-4.800000042E-2,9.846000671E0
2.313940372E0,-1.695000008E-2,-4.605000094E-2,9.846000671E0
2.316440755E0,-1.695000008E-2,-3.900000080E-2,9.841050148E0
2.318941064E0,-1.695000008E-2,-3.705000132E-2,9.850950241E0
2.321441591E0,-4.950000439E-3,-4.395000264E-2,9.835950851E0
2.323941901E0,1.800000109E-2,-5.100000277E-2,9.829050064E0
2.326442283E0,4.200000316E-2,-2.700000070E-2,9.843000412E0
2.328942593E0,4.200000316E-2,-4.395000264E-2,9.841050148E0
2.331443124E0,5.895000324E-2,-3.705000132E-2,9.846000671E0
2.333943434E0,7.800000161E-2,-1.695000008E-2,9.829050064E0
2.336443817E0,9.495000541E-2,-2.700000070E-2,9.834000587E0
2.338944126E0,9.195000678E-2,-1.995000057E-2,9.841050148E0
2.341444639E0,9.900000691E-2,1.050000079E-3,9.838950157E0
2.343944949E0,1.110000089E-1,-3.000000026E-3,9.843000412E0
2.346445331E0,9.900000691E-2,-1.050000079E-3,9.850950241E0
2.348945636E0,8.700000495E-2,-1.050000079E-3,9.846000671E0
2.351446172E0,9.000000358E-2,1.050000079E-3,9.853050232E0
2.353946559E0,8.295000345E-2,-4.950000439E-3,9.846000671E0
2.356446867E0,5.400000140E-2,6.000000052E-3,9.847950935E0
2.358947403E0,3.195000067E-2,3.000000026E-3,9.850950241E0
2.361447713E0,1.995000057E-2,-1.500000060E-2,9.858000755E0
2.363948090E0,-7.050000131E-3,-4.950000439E-3,9.843000412E0
2.366448400E0,-2.205000073E-2,-7.950000465E-3,9.831000328E0
2.368948937E0,-5.100000277E-2,-1.005000062E-2,9.843000412E0
2.371449246E0,-8.400000632E-2,1.050000079E-3,9.847950935E0
2.373949554E0,-1.219500080E-1,-1.050000079E-3,9.847950935E0
2.376449937E0,-1.440000087E-1,7.950000465E-3,9.847950935E0
2.378950246E0,-1.890000105E-1,1.995000057E-2,9.850950241E0
2.381450783E0,-2.010000050E-1,1.500000060E-2,9.850950241E0
2.383951111E0,-2.179500163E-1,1.500000060E-2,9.831000328E0
2.386451494E0,-2.370000184E-1,2.505000122E-2,9.853050232E0
2.388952033E0,-2.779500186E-1,4.395000264E-2,9.843000412E0
2.391452342E0,-2.920500040E-1,3.705000132E-2,9.846000671E0
2.393952715E0,-3.109500110E-1,4.395000264E-2,9.855000496E0
2.396453025E0,-3.090000153E-1,6.795000285E-2,9.855000496E0
2.398953561E0,-3.210000098E-1,5.100000277E-2,9.850950241E0
2.401453871E0,-3.499500155E-1,6.795000285E-2,9.847950935E0
2.403954253E0,-3.570000231E-1,7.695000619E-2,9.855000496E0
2.406454558E0,-3.760500252E-1,8.205000311E-2,9.853050232E0
2.408955095E0,-3.709500134E-1,7.695000619E-2,9.855000496E0
2.411455404E0,-3.829500079E-1,7.500000298E-2,9.865050316E0
2.413955787E0,-3.979500234E-1,7.995000482E-2,9.862950325E0
2.416456097E0,-3.760500252E-1,8.505000174E-2,9.865050316E0
2.418956633E0,-3.880500197E-1,9.900000691E-2,9.834000587E0
2.421457020E0,-3.790500164E-1,1.009500027E-1,9.846000671E0
2.423957327E0,-3.709500134E-1,1.180500090E-1,9.859950066E0
2.426457864E0,-3.550500274E-1,1.180500090E-1,9.867000580E0
2.428958178E0,-3.400500119E-1,1.009500027E-1,9.850950241E0
2.431458561E0,-3.190500140E-1,1.180500090E-1,9.843000412E0
2.433958871E0,-2.920500040E-1,1.279500127E-1,9.850950241E0
2.436459407E0,-2.560500205E-1,1.210500076E-1,9.850950241E0
2.438959707E0,-2.370000184E-1,1.230000034E-1,9.847950935E0
2.441460090E0,-2.230500132E-1,1.129500046E-1,9.855000496E0
2.443960399E0,-2.299500108E-1,1.110000089E-1,9.859950066E0
2.446460707E0,-2.040000111E-1,9.405000508E-2,9.843000412E0
2.448961243E0,-1.750500053E-1,7.995000482E-2,9.850950241E0
2.451461539E0,-1.579500139E-1,7.005000114E-2,9.843000412E0
2.453961922E0,-1.369500011E-1,7.304999977E-2,9.841050148E0
2.456462460E0,-1.339500099E-1,4.395000264E-2,9.843000412E0
2.458962770E0,-1.300500035E-1,6.105000153E-2,9.841050148E0
2.461463078E0,-1.249500066E-1,4.395000264E-2,9.858000755E0
2.463963470E0,-9.795000404E-2,2.205000073E-2,9.846000671E0
2.466463780E0,-1.150500029E-1,-3.000000026E-3,9.858000755E0
2.468964316E0,-1.129500046E-1,1.500000060E-2,9.859950066E0
2.471464626E0,-1.080000028E-1,-3.000000026E-3,9.850950241E0
2.473964999E0,-9.105000645E-2,7.950000465E-3,9.838950157E0
2.476465308E0,-7.005000114E-2,2.205000073E-2,9.859950066E0
2.478965845E0,-5.295000225E-2,-1.050000079E-3,9.847950935E0
2.481466155E0,-5.100000277E-2,1.050000079E-3,9.843000412E0
2.483966764E0,-3.600000218E-2,1.305000018E-2,9.834000587E0
2.486467074E0,-3.600000218E-2,3.900000080E-2,9.846000671E0
2.488967458E0,-1.695000008E-2,4.095000029E-2,9.841050148E0
2.491467766E0,-4.950000439E-3,5.595000088E-2,9.829050064E0
2.493968088E0,4.050000105E-3,4.605000094E-2,9.843000412E0
2.496468624E0,-7.050000131E-3,6.105000153E-2,9.841050148E0
2.498968934E0,-2.400000021E-2,5.595000088E-2,9.835950851E0
2.501469317E0,-2.895000204E-2,4.905000329E-2,9.843000412E0
2.503969626E0,-3.900000080E-2,6.300000101E-2,9.847950935E0
2.506470163E0,-3.600000218E-2,7.304999977E-2,9.838950157E0
2.508970472E0,-3.600000218E-2,6.495000422E-2,9.841050148E0
2.511470855E0,-6.000000238E-2,6.105000153E-2,9.847950935E0
2.513971165E0,-7.005000114E-2,6.495000422E-2,9.831000328E0
2.516471715E0,-9.405000508E-2,8.700000495E-2,9.847950935E0
2.518972025E0,-8.205000311E-2,7.695000619E-2,9.847950935E0
2.521472407E0,-9.795000404E-2,9.195000678E-2,9.847950935E0
2.523972717E0,-9.405000508E-2,8.895000070E-2,9.850950241E0
2.526473265E0,-9.405000508E-2,8.700000495E-2,9.843000412E0
2.528973574E0,-1.009500027E-1,1.129500046E-1,9.829050064E0
2.531473957E0,-9.405000508E-2,1.319999993E-1,9.858000755E0
2.533974267E0,-9.405000508E-2,1.369500011E-1,9.859950066E0
2.536474817E0,-6.705000252E-2,1.399500072E-1,9.847950935E0
2.538975127E0,-7.005000114E-2,1.590000093E-1,9.846000671E0
2.541475509E0,-5.805000290E-2,1.780500114E-1,9.850950241E0
2.543975819E0,-4.305000231E-2,2.020500153E-1,9.855000496E0
2.546476356E0,-3.600000218E-2,2.020500153E-1,9.829050064E0
2.548976694E0,-3.105000220E-2,1.900500059E-1,9.847950935E0
2.551477077E0,-4.950000439E-3,2.020500153E-1,9.847950935E0
2.553977615E0,1.995000057E-2,2.040000111E-1,9.835950851E0
2.556477925E0,4.695000127E-2,2.160000056E-1,9.847950935E0
2.558978293E0,7.800000161E-2,2.230500132E-1,9.858000755E0
2.561478602E0,9.900000691E-2,2.089500129E-1,9.834000587E0
2.563979139E0,1.110000089E-1,2.110500038E-1,9.823950768E0
2.566479449E0,1.450500041E-1,2.190000117E-1,9.847950935E0
2.568979841E0,1.660500020E-1,2.040000111E-1,9.841050148E0
2.571480151E0,1.999500096E-1,2.089500129E-1,9.823950768E0
2.573980687E0,2.140500098E-1,2.089500129E-1,9.834000587E0
2.576480997E0,2.380500138E-1,2.160000056E-1,9.826950073E0
2.578981380E0,2.530499995E-1,2.089500129E-1,9.846000671E0
2.581481689E0,2.689500153E-1,2.110500038E-1,9.829050064E0
2.583982226E0,2.569500208E-1,2.190000117E-1,9.846000671E0
2.586482536E0,2.569500208E-1,2.020500153E-1,9.853050232E0
2.588982918E0,2.550000250E-1,2.040000111E-1,9.829050064E0
2.591483247E0,2.689500153E-1,2.140500098E-1,9.822000504E0
2.593983783E0,2.719500065E-1,1.950000077E-1,9.829050064E0
2.596484093E0,2.569500208E-1,1.710000038E-1,9.829050064E0
2.598984476E0,2.239500135E-1,1.729500145E-1,9.829050064E0
2.601484780E0,2.020500153E-1,1.759500057E-1,9.841050148E0
2.603985317E0,1.950000077E-1,1.560000032E-1,9.850950241E0
2.606485627E0,1.969500035E-1,1.129500046E-1,9.826950073E0
2.608986009E0,1.830000132E-1,1.159500033E-1,9.835950851E0
2.611486343E0,1.620000005E-1,1.060500070E-1,9.823950768E0
2.613986879E0,1.620000005E-1,1.129500046E-1,9.859950066E0
2.616487266E0,1.420500129E-1,8.895000070E-2,9.853050232E0
2.618987574E0,1.540500075E-1,8.505000174E-2,9.834000587E0
2.621488110E0,1.420500129E-1,9.405000508E-2,9.838950157E0
2.623988420E0,1.140000075E-1,9.195000678E-2,9.853050232E0
2.626488802E0,1.140000075E-1,8.700000495E-2,9.858000755E0
2.628989112E0,1.110000089E-1,9.705000371E-2,9.846000671E0
2.631489649E0,1.069500074E-1,9.405000508E-2,9.831000328E0
2.633989954E0,8.700000495E-2,8.895000070E-2,9.834000587E0
2.636490337E0,8.505000174E-2,9.705000371E-2,9.847950935E0
2.638990647E0,6.105000153E-2,9.705000371E-2,9.841050148E0
2.641491183E0,5.895000324E-2,1.180500090E-1,9.843000412E0
2.643991493E0,5.100000277E-2,1.129500046E-1,9.853050232E0
2.646491875E0,4.200000316E-2,1.159500033E-1,9.843000412E0
2.648992185E0,1.800000109E-2,1.279500127E-1,9.838950157E0
2.651492722E0,1.305000018E-2,1.210500076E-1,9.850950241E0
2.653993031E0,-1.500000060E-2,1.350000054E-1,9.822000504E0
2.656493418E0,-1.695000008E-2,1.129500046E-1,9.843000412E0
2.658993728E0,-1.695000008E-2,1.159500033E-1,9.847950935E0
2.661494264E0,-4.095000029E-2,1.319999993E-1,9.853050232E0
2.663994574E0,-5.100000277E-2,1.110000089E-1,9.834000587E0
2.666494971E0,-7.905000448E-2,1.159500033E-1,9.847950935E0
2.668995281E0,-1.080000028E-1,1.110000089E-1,9.850950241E0
2.671495818E0,-1.319999993E-1,1.180500090E-1,9.843000412E0
2.673996127E0,-1.180500090E-1,1.159500033E-1,9.843000412E0
2.676496510E0,-1.200000048E-1,1.159500033E-1,9.855000496E0
2.678996820E0,-1.249500066E-1,1.129500046E-1,9.838950157E0
2.681497356E0,-1.339500099E-1,8.505000174E-2,9.858000755E0
2.683997743E0,-1.300500035E-1,6.795000285E-2,9.855000496E0
2.686498050E0,-1.489500105E-1,7.500000298E-2,9.838950157E0
2.688998358E0,-1.300500035E-1,7.695000619E-2,9.855000496E0
2.691498895E0,-1.609500051E-1,6.300000101E-2,9.858000755E0
2.693999204E0,-1.560000032E-1,4.605000094E-2,9.847950935E0
2.696499587E0,-1.560000032E-1,3.000000119E-2,9.853050232E0
2.698999897E0,-1.530000120E-1,7.950000465E-3,9.850950241E0
2.701500433E0,-1.440000087E-1,1.005000062E-2,9.855000496E0
2.704000743E0,-1.219500080E-1,-1.305000018E-2,9.838950157E0
2.706501125E0,-9.405000508E-2,-3.900000080E-2,9.838950157E0
2.709001444E0,-9.600000083E-2,-3.405000269E-2,9.834000587E0
2.711501980E0,-6.000000238E-2,-4.605000094E-2,9.834000587E0
2.714002290E0,-5.295000225E-2,-6.795000285E-2,9.850950241E0
2.716502673E0,-2.205000073E-2,-7.200000435E-2,9.871950150E0
2.719003192E0,1.605000161E-2,-7.995000482E-2,9.850950241E0
2.721503502E0,3.195000067E-2,-8.895000070E-2,9.855000496E0
2.724003885E0,4.695000127E-2,-1.039500013E-1,9.859950066E0
2.726504194E0,4.200000316E-2,-9.900000691E-2,9.853050232E0
2.729004750E0,6.300000101E-2,-8.400000632E-2,9.829050064E0
2.731505059E0,7.304999977E-2,-8.205000311E-2,9.838950157E0
2.734005442E0,8.700000495E-2,-8.205000311E-2,9.850950241E0
2.736505752E0,9.195000678E-2,-9.405000508E-2,9.829050064E0
2.739006279E0,9.495000541E-2,-7.995000482E-2,9.855000496E0
2.741506589E0,8.295000345E-2,-6.795000285E-2,9.847950935E0
2.744006972E0,5.595000088E-2,-8.400000632E-2,9.846000671E0
2.746507281E0,5.595000088E-2,-7.200000435E-2,9.846000671E0
2.749007822E0,3.900000080E-2,-7.200000435E-2,9.847950935E0
2.751508131E0,1.995000057E-2,-7.995000482E-2,9.847950935E0
2.754008514E0,1.305000018E-2,-6.300000101E-2,9.843000412E0
2.756508824E0,1.050000079E-3,-8.205000311E-2,9.838950157E0
2.759009356E0,-3.405000269E-2,-6.000000238E-2,9.846000671E0
2.761509666E0,-2.205000073E-2,-7.995000482E-2,9.829050064E0
2.764010049E0,-3.105000220E-2,-5.595000088E-2,9.843000412E0
2.766510358E0,-3.900000080E-2,-4.395000264E-2,9.859950066E0
2.769010895E0,-4.605000094E-2,-4.395000264E-2,9.846000671E0
2.771511204E0,-5.100000277E-2,-2.700000070E-2,9.853050232E0
2.774011587E0,-3.105000220E-2,-2.205000073E-2,9.855000496E0
2.776511897E0,-3.000000026E-3,-1.305000018E-2,9.831000328E0
2.779012433E0,-1.200000010E-2,-1.050000079E-3,9.835950851E0
2.781512805E0,-1.905000024E-2,-4.950000439E-3,9.831000328E0
2.784013112E0,1.050000079E-3,3.405000269E-2,9.853050232E0
2.786513649E0,1.050000079E-3,2.505000122E-2,9.846000671E0
2.789013959E0,-7.050000131E-3,1.800000109E-2,9.841050148E0
2.791514336E0,-1.695000008E-2,1.800000109E-2,9.834000587E0
2.794014646E0,-7.050000131E-3,1.305000018E-2,9.858000755E0
2.796515182E0,-1.695000008E-2,4.095000029E-2,9.843000412E0
2.799015492E0,-1.500000060E-2,4.395000264E-2,9.843000412E0
2.801515875E0,-1.005000062E-2,2.205000073E-2,9.850950241E0
2.804016189E0,-4.950000439E-3,1.995000057E-2,9.841050148E0
2.806516497E0,-3.000000026E-3,1.050000079E-3,9.853050232E0
2.809017034E0,1.050000079E-3,-7.950000465E-3,9.846000671E0
2.811517343E0,-1.005000062E-2,1.800000109E-2,9.847950935E0
2.814017736E0,-4.950000439E-3,-1.305000018E-2,9.847950935E0
2.816518274E0,-2.400000021E-2,-7.950000465E-3,9.843000412E0
2.819018584E0,-1.005000062E-2,-1.005000062E-2,9.847950935E0
2.821518967E0,-1.200000010E-2,-4.950000439E-3,9.841050148E0
2.824019285E0,-2.205000073E-2,-3.000000026E-3,9.846000671E0
2.826519822E0,-3.405000269E-2,-1.500000060E-2,9.843000412E0
2.829020132E0,-6.195000187E-2,3.000000026E-3,9.855000496E0
2.831520514E0,-5.805000290E-2,-1.305000018E-2,9.843000412E0
2.834020819E0,-7.905000448E-2,-4.950000439E-3,9.829050064E0
2.836521355E0,-9.405000508E-2,-7.950000465E-3,9.835950851E0
2.839021665E0,-9.795000404E-2,1.050000079E-3,9.853050232E0
2.841521973E0,-1.129500046E-1,-3.195000067E-2,9.853050232E0
2.844022350E0,-1.200000048E-1,-3.900000080E-2,9.847950935E0
2.846522889E0,-1.410000026E-1,-4.095000029E-2,9.847950935E0
2.849023275E0,-1.650000066E-1,-6.000000238E-2,9.846000671E0
2.851523583E0,-1.650000066E-1,-6.000000238E-2,9.846000671E0
2.854024116E0,-1.650000066E-1,-7.005000114E-2,9.841050148E0
2.856524425E0,-1.680000126E-1,-6.495000422E-2,9.867000580E0
2.859024808E0,-1.560000032E-1,-8.205000311E-2,9.862950325E0
2.861525118E0,-1.440000087E-1,-9.405000508E-2,9.847950935E0
2.864025643E0,-1.319999993E-1,-1.009500027E-1,9.847950935E0
2.866525953E0,-1.300500035E-1,-9.600000083E-2,9.855000496E0
2.869026261E0,-1.249500066E-1,-9.405000508E-2,9.835950851E0
2.871526643E0,-1.150500029E-1,-9.405000508E-2,9.850950241E0
2.874026938E0,-8.205000311E-2,-9.195000678E-2,9.850950241E0
2.876527474E0,-7.005000114E-2,-9.195000678E-2,9.834000587E0
2.879027861E0,-6.495000422E-2,-8.700000495E-2,9.843000412E0
2.881528169E0,-6.195000187E-2,-9.600000083E-2,9.855000496E0
2.884028710E0,-5.295000225E-2,-9.195000678E-2,9.838950157E0
2.886529020E0,-4.800000042E-2,-8.895000070E-2,9.847950935E0
2.889029402E0,-2.895000204E-2,-8.400000632E-2,9.829050064E0
2.891529712E0,-3.405000269E-2,-8.700000495E-2,9.846000671E0
2.894030006E0,-3.600000218E-2,-7.500000298E-2,9.850950241E0
2.896530542E0,-1.200000010E-2,-6.495000422E-2,9.865050316E0
2.899030852E0,-1.500000060E-2,-7.695000619E-2,9.858000755E0
2.901531235E0,-1.005000062E-2,-1.039500013E-1,9.850950241E0
2.904031544E0,1.095000096E-2,-1.009500027E-1,9.847950935E0
2.906532090E0,6.000000052E-3,-1.039500013E-1,9.841050148E0
2.909032399E0,0.000000000E0,-1.039500013E-1,9.835950851E0
2.911532782E0,0.000000000E0,-8.400000632E-2,9.841050148E0
2.914033321E0,4.050000105E-3,-8.700000495E-2,9.847950935E0
2.916533640E0,3.495000303E-2,-8.400000632E-2,9.862950325E0
2.919034023E0,2.505000122E-2,-7.200000435E-2,9.846000671E0
2.921534333E0,1.095000096E-2,-6.795000285E-2,9.853050232E0
2.924034869E0,1.605000161E-2,-4.395000264E-2,9.838950157E0
2.926535256E0,2.505000122E-2,-3.405000269E-2,9.831000328E0
2.929035549E0,1.605000161E-2,-1.500000060E-2,9.819000244E0
2.931535857E0,3.195000067E-2,6.000000052E-3,9.843000412E0
2.934036394E0,2.295000106E-2,2.505000122E-2,9.831000328E0
2.936536674E0,2.295000106E-2,3.705000132E-2,9.841050148E0
2.939037057E0,2.805000171E-2,3.900000080E-2,9.841050148E0
2.941537367E0,1.995000057E-2,5.295000225E-2,9.846000671E0
2.944037903E0,5.400000140E-2,6.495000422E-2,9.850950241E0
2.946538290E0,6.599999964E-2,8.700000495E-2,9.835950851E0
2.949038602E0,5.400000140E-2,8.205000311E-2,9.853050232E0
2.951539139E0,7.800000161E-2,9.195000678E-2,9.843000412E0
2.954039449E0,7.995000482E-2,1.060500070E-1,9.834000587E0
2.956539831E0,7.095000148E-2,1.060500070E-1,9.846000671E0
2.959040136E0,9.195000678E-2,1.369500011E-1,9.847950935E0
2.961540672E0,9.705000371E-2,1.369500011E-1,9.843000412E0
2.964040982E0,9.495000541E-2,1.639500111E-1,9.829050064E0
2.966541290E0,9.000000358E-2,1.849500090E-1,9.843000412E0
2.969041648E0,7.304999977E-2,2.070000172E-1,9.847950935E0
2.971541958E0,4.905000329E-2,2.209500074E-1,9.841050148E0
2.974042494E0,2.805000171E-2,2.449500114E-1,9.835950851E0
2.976542804E0,1.605000161E-2,2.670000196E-1,9.826950073E0
2.979043201E0,-2.205000073E-2,2.899500132E-1,9.843000412E0
2.981543739E0,-2.400000021E-2,3.190500140E-1,9.855000496E0
2.984044049E0,-2.895000204E-2,3.259500265E-1,9.841050148E0
2.986544432E0,-4.605000094E-2,3.409500122E-1,9.841050148E0
2.989044741E0,-7.200000435E-2,3.360000253E-1,9.841050148E0
2.991545273E0,-1.129500046E-1,3.379500210E-1,9.841050148E0
2.994045582E0,-1.200000048E-1,3.480000198E-1,9.850950241E0
2.996545965E0,-1.369500011E-1,3.340500295E-1,9.838950157E0
2.999046275E0,-1.510500014E-1,3.460500240E-1,9.846000671E0
3.001546797E0,-1.650000066E-1,3.310500085E-1,9.835950851E0
3.004047107E0,-1.800000072E-1,3.310500085E-1,9.843000412E0
3.006547490E0,-1.920000017E-1,3.310500085E-1,9.858000755E0
3.009048028E0,-1.800000072E-1,3.310500085E-1,9.859950066E0
3.011548338E0,-1.849500090E-1,3.120000064E-1,9.843000412E0
3.014048720E0,-1.800000072E-1,2.880000174E-1,9.858000755E0
3.016549030E0,-1.699500084E-1,2.809500098E-1,9.846000671E0
3.019049338E0,-1.650000066E-1,2.880000174E-1,9.843000412E0
3.021549893E0,-1.680000126E-1,2.950500250E-1,9.846000671E0
3.024050203E0,-1.750500053E-1,2.760000229E-1,9.831000328E0
3.026550586E0,-1.530000120E-1,2.500500083E-1,9.835950851E0
3.029050895E0,-1.609500051E-1,2.550000250E-1,9.853050232E0
3.031551432E0,-1.440000087E-1,2.449500114E-1,9.846000671E0
3.034051752E0,-1.200000048E-1,2.520000041E-1,9.841050148E0
3.036552135E0,-1.150500029E-1,2.520000041E-1,9.838950157E0
3.039052445E0,-8.400000632E-2,2.280000150E-1,9.838950157E0
3.041552981E0,-5.505000427E-2,2.110500038E-1,9.822000504E0
3.044053363E0,-3.900000080E-2,1.900500059E-1,9.835950851E0
3.046553671E0,-1.200000010E-2,1.999500096E-1,9.850950241E0
3.049054207E0,1.605000161E-2,1.780500114E-1,9.846000671E0
3.051554517E0,3.000000119E-2,1.710000038E-1,9.841050148E0
3.054054884E0,4.200000316E-2,1.469999999E-1,9.846000671E0
3.056555194E0,5.100000277E-2,1.440000087E-1,9.853050232E0
3.059055730E0,8.505000174E-2,1.540500075E-1,9.850950241E0
3.061556040E0,1.090500057E-1,1.369500011E-1,9.847950935E0
3.064056409E0,1.380000114E-1,1.210500076E-1,9.838950157E0
3.066556718E0,1.330500096E-1,1.249500066E-1,9.829050064E0
3.069057026E0,1.570500135E-1,1.159500033E-1,9.841050148E0
3.071557563E0,1.740000099E-1,1.009500027E-1,9.822000504E0
3.074057949E0,1.969500035E-1,1.210500076E-1,9.822000504E0
3.076558262E0,2.020500153E-1,1.009500027E-1,9.838950157E0
3.079058798E0,1.969500035E-1,1.060500070E-1,9.835950851E0
3.081559108E0,2.070000172E-1,9.900000691E-2,9.850950241E0
3.084059491E0,2.239500135E-1,9.900000691E-2,9.847950935E0
3.086559790E0,2.500500083E-1,7.500000298E-2,9.841050148E0
3.089060327E0,2.740500271E-1,7.500000298E-2,9.831000328E0
3.091560637E0,2.670000196E-1,4.905000329E-2,9.841050148E0
3.094061019E0,2.809500098E-1,6.105000153E-2,9.826950073E0
3.096561329E0,2.929500043E-1,3.000000119E-2,9.831000328E0
3.099061880E0,3.079500198E-1,3.900000080E-2,9.831000328E0
3.101562190E0,3.270000219E-1,7.950000465E-3,9.823950768E0
3.104062573E0,3.480000198E-1,3.195000067E-2,9.838950157E0
3.106562882E0,3.340500295E-1,1.305000018E-2,9.838950157E0
3.109063447E0,3.559500277E-1,1.995000057E-2,9.846000671E0
3.111563834E0,3.670500219E-1,-4.950000439E-3,9.834000587E0
3.114064141E0,3.559500277E-1,-4.950000439E-3,9.826950073E0
3.116564678E0,3.439500034E-1,1.050000079E-3,9.808050156E0
3.119064968E0,3.460500240E-1,1.800000109E-2,9.858000755E0
3.121565276E0,3.100500107E-1,3.000000119E-2,9.834000587E0
3.124065659E0,3.079500198E-1,6.000000052E-3,9.829050064E0
3.126565968E0,2.809500098E-1,-3.000000026E-3,9.834000587E0
3.129066505E0,2.719500065E-1,-1.050000079E-3,9.829050064E0
3.131566805E0,2.569500208E-1,-1.005000062E-2,9.831000328E0
3.134067187E0,2.089500129E-1,-2.700000070E-2,9.841050148E0
3.136567497E0,1.999500096E-1,-3.900000080E-2,9.850950241E0
3.139068033E0,1.519500017E-1,-8.205000311E-2,9.838950157E0
3.141568363E0,1.450500041E-1,-8.895000070E-2,9.817050934E0
3.144068746E0,1.300500035E-1,-1.350000054E-1,9.847950935E0
3.146569284E0,9.495000541E-2,-1.440000087E-1,9.829050064E0
3.149069594E0,9.705000371E-2,-1.489500105E-1,9.834000587E0
3.151569966E0,6.795000285E-2,-1.560000032E-1,9.841050148E0
3.154070276E0,5.100000277E-2,-1.590000093E-1,9.853050232E0
3.156570813E0,4.905000329E-2,-1.800000072E-1,9.862950325E0
3.159071122E0,3.000000119E-2,-1.849500090E-1,9.858000755E0
3.161571500E0,1.305000018E-2,-1.830000132E-1,9.843000412E0
3.164071810E0,-4.950000439E-3,-1.750500053E-1,9.846000671E0
3.166572346E0,-1.905000024E-2,-1.780500114E-1,9.858000755E0
3.169072656E0,-4.800000042E-2,-1.920000017E-1,9.846000671E0
3.171572963E0,-4.605000094E-2,-1.780500114E-1,9.838950157E0
3.174073361E0,-5.505000427E-2,-1.729500145E-1,9.858000755E0
3.176573900E0,-3.600000218E-2,-1.680000126E-1,9.847950935E0
3.179074286E0,-5.295000225E-2,-1.540500075E-1,9.843000412E0
3.181574594E0,-5.100000277E-2,-1.750500053E-1,9.847950935E0
3.184075134E0,-3.900000080E-2,-1.729500145E-1,9.850950241E0
3.186575444E0,-2.700000070E-2,-1.729500145E-1,9.846000671E0
3.189075752E0,1.050000079E-3,-1.510500014E-1,9.853050232E0
3.191576134E0,1.605000161E-2,-1.300500035E-1,9.847950935E0
3.194076430E0,1.095000096E-2,-1.369500011E-1,9.835950851E0
3.196576967E0,2.295000106E-2,-1.420500129E-1,9.853050232E0
3.199077276E0,3.195000067E-2,-1.230000034E-1,9.841050148E0
3.201577659E0,3.900000080E-2,-1.110000089E-1,9.841050148E0
3.204077969E0,5.400000140E-2,-9.900000691E-2,9.846000671E0
3.206578489E0,4.905000329E-2,-1.060500070E-1,9.843000412E0
3.209078799E0,6.105000153E-2,-8.400000632E-2,9.850950241E0
3.211579181E0,4.395000264E-2,-7.200000435E-2,9.846000671E0
3.214079720E0,5.100000277E-2,-8.400000632E-2,9.817050934E0
3.216580035E0,3.900000080E-2,-6.795000285E-2,9.831000328E0
3.219080417E0,4.395000264E-2,-6.000000238E-2,9.835950851E0
3.221580727E0,1.050000079E-3,-7.500000298E-2,9.843000412E0
3.224081263E0,1.050000079E-3,-6.795000285E-2,9.835950851E0
3.226581587E0,-1.905000024E-2,-6.000000238E-2,9.853050232E0
3.229081895E0,-3.405000269E-2,-7.995000482E-2,9.850950241E0
3.231582277E0,-3.900000080E-2,-8.205000311E-2,9.834000587E0
3.234082587E0,-6.495000422E-2,-9.600000083E-2,9.843000412E0
3.236583138E0,-7.200000435E-2,-1.180500090E-1,9.847950935E0
3.239083448E0,-6.495000422E-2,-1.469999999E-1,9.838950157E0
3.241583831E0,-4.095000029E-2,-1.630500108E-1,9.855000496E0
3.244084369E0,-2.895000204E-2,-1.950000077E-1,9.847950935E0
3.246584679E0,-5.100000277E-2,-1.920000017E-1,9.853050232E0
3.249085042E0,-3.600000218E-2,-2.209500074E-1,9.846000671E0
3.251585351E0,-4.605000094E-2,-2.089500129E-1,9.853050232E0
3.254085888E0,-5.805000290E-2,-2.329500169E-1,9.834000587E0
3.256586197E0,-1.009500027E-1,-2.350500077E-1,9.843000412E0
3.259086576E0,-1.030500084E-1,-2.110500038E-1,9.846000671E0
3.261586886E0,-1.249500066E-1,-2.089500129E-1,9.846000671E0
3.264087422E0,-1.530000120E-1,-2.070000172E-1,9.858000755E0
3.266587732E0,-1.800000072E-1,-1.990500093E-1,9.846000671E0
3.269088105E0,-2.230500132E-1,-1.920000017E-1,9.853050232E0
3.271588414E0,-2.590500116E-1,-1.969500035E-1,9.850950241E0
3.274088951E0,-2.899500132E-1,-1.729500145E-1,9.870000839E0
3.276589260E0,-3.499500155E-1,-1.680000126E-1,9.867000580E0
3.279089553E0,-3.640500307E-1,-1.590000093E-1,9.867000580E0
3.281590167E0,-3.790500164E-1,-1.590000093E-1,9.859950066E0
3.284090476E0,-4.099500179E-1,-1.350000054E-1,9.853050232E0
3.286590860E0,-4.309500158E-1,-1.129500046E-1,9.862950325E0
3.289091174E0,-4.600500166E-1,-1.080000028E-1,9.877050400E0
3.291591481E0,-4.530000091E-1,-9.900000691E-2,9.871950150E0
3.294092018E0,-4.480500221E-1,-6.000000238E-2,9.879000664E0
3.296592327E0,-4.669500291E-1,-7.200000435E-2,9.877050400E0
3.299092710E0,-4.579500258E-1,-4.095000029E-2,9.877050400E0
3.301593020E0,-4.620000124E-1,-3.405000269E-2,9.853050232E0
3.304093556E0,-4.890000224E-1,6.000000052E-3,9.865050316E0
3.306593866E0,-4.860000312E-1,3.405000269E-2,9.871950150E0
3.309094249E0,-4.930500090E-1,3.705000132E-2,9.859950066E0
3.311594777E0,-5.050500035E-1,6.495000422E-2,9.870000839E0
3.314095087E0,-4.930500090E-1,9.900000691E-2,9.871950150E0
3.316595469E0,-5.029500127E-1,1.180500090E-1,9.850950241E0
3.319095779E0,-5.130000114E-1,1.440000087E-1,9.865050316E0
3.321596286E0,-5.029500127E-1,1.469999999E-1,9.853050232E0
3.324096596E0,-4.890000224E-1,1.780500114E-1,9.850950241E0
3.326596979E0,-4.810500145E-1,1.540500075E-1,9.862950325E0
3.329097288E0,-4.770000279E-1,1.680000126E-1,9.874950409E0
3.331597830E0,-4.339500070E-1,1.729500145E-1,9.867000580E0
3.334098140E0,-4.120500088E-1,1.780500114E-1,9.846000671E0
3.336598447E0,-3.900000155E-1,1.609500051E-1,9.871950150E0
3.339098830E0,-3.499500155E-1,1.660500020E-1,9.867000580E0
3.341599159E0,-3.190500140E-1,1.560000032E-1,9.865050316E0
3.344099695E0,-2.950500250E-1,1.660500020E-1,9.870000839E0
3.346600082E0,-2.760000229E-1,1.560000032E-1,9.859950066E0
3.349100389E0,-2.560500205E-1,1.469999999E-1,9.846000671E0
3.351600926E0,-2.350500077E-1,1.540500075E-1,9.859950066E0
3.354101236E0,-2.110500038E-1,1.540500075E-1,9.859950066E0
3.356601618E0,-1.939500123E-1,1.780500114E-1,9.853050232E0
3.359101928E0,-1.630500108E-1,1.780500114E-1,9.850950241E0
3.361602464E0,-1.390500069E-1,1.900500059E-1,9.850950241E0
3.364102784E0,-9.405000508E-2,1.900500059E-1,9.858000755E0
3.366603167E0,-6.000000238E-2,1.969500035E-1,9.846000671E0
3.369103476E0,-1.005000062E-2,1.999500096E-1,9.847950935E0
3.371604013E0,3.495000303E-2,2.020500153E-1,9.858000755E0
3.374104323E0,7.500000298E-2,1.999500096E-1,9.838950157E0
3.376604705E0,1.090500057E-1,1.830000132E-1,9.814950943E0
3.379105244E0,1.380000114E-1,1.999500096E-1,9.835950851E0
3.381605553E0,1.830000132E-1,2.020500153E-1,9.841050148E0
3.384105941E0,2.190000117E-1,2.070000172E-1,9.841050148E0
3.386606251E0,2.290500104E-1,2.070000172E-1,9.841050148E0
3.389106787E0,2.670000196E-1,2.020500153E-1,9.819000244E0
3.391607097E0,2.959500253E-1,1.950000077E-1,9.838950157E0
3.394107479E0,2.839500010E-1,2.040000111E-1,9.823950768E0
3.396607789E0,2.860500216E-1,2.160000056E-1,9.850950241E0
3.399108097E0,2.959500253E-1,2.140500098E-1,9.841050148E0
3.401608633E0,2.790000141E-1,2.230500132E-1,9.835950851E0
3.404108943E0,2.839500010E-1,2.400000095E-1,9.829050064E0
3.406609326E0,2.380500138E-1,2.809500098E-1,9.834000587E0
3.409109864E0,2.410500050E-1,2.929500043E-1,9.823950768E0
3.411610174E0,2.050500065E-1,3.070500195E-1,9.835950851E0
3.414110556E0,1.930500120E-1,3.499500155E-1,9.846000671E0
3.416610876E0,1.500000060E-1,3.460500240E-1,9.838950157E0
3.419111413E0,1.690500081E-1,3.600000143E-1,9.847950935E0
3.421611722E0,1.639500111E-1,3.649500310E-1,9.853050232E0
3.424112105E0,1.180500090E-1,3.810000122E-1,9.822000504E0
3.426612419E0,1.279500127E-1,3.840000033E-1,9.823950768E0
3.429112955E0,1.180500090E-1,4.050000310E-1,9.831000328E0
3.431613265E0,7.500000298E-2,3.930000067E-1,9.838950157E0
3.434113647E0,9.705000371E-2,3.979500234E-1,9.859950066E0
3.436613953E0,9.195000678E-2,4.009500146E-1,9.847950935E0
3.439114490E0,7.995000482E-2,4.099500179E-1,9.853050232E0
3.441614799E0,9.900000691E-2,3.790500164E-1,9.853050232E0
3.444115182E0,8.295000345E-2,3.859500289E-1,9.835950851E0
3.446615720E0,7.500000298E-2,3.790500164E-1,9.823950768E0
3.449116044E0,8.295000345E-2,3.790500164E-1,9.847950935E0
3.451616352E0,5.595000088E-2,3.700500131E-1,9.838950157E0
3.454116734E0,3.495000303E-2,3.739500046E-1,9.835950851E0
3.456617044E0,0.000000000E0,3.700500131E-1,9.858000755E0
3.459117576E0,0.000000000E0,3.769500256E-1,9.858000755E0
3.461617885E0,-3.405000269E-2,3.720000088E-1,9.829050064E0
3.464118268E0,-4.605000094E-2,3.600000143E-1,9.850950241E0
3.466618578E0,-6.000000238E-2,3.529500067E-1,9.853050232E0
3.469119114E0,-8.205000311E-2,3.310500085E-1,9.834000587E0
3.471619429E0,-8.400000632E-2,3.259500265E-1,9.858000755E0
3.474119811E0,-8.595000207E-2,3.070500195E-1,9.841050148E0
3.476620350E0,-8.895000070E-2,2.830500007E-1,9.838950157E0
3.479120660E0,-9.600000083E-2,2.520000041E-1,9.841050148E0
3.481621032E0,-9.405000508E-2,2.209500074E-1,9.835950851E0
3.484121342E0,-1.080000028E-1,2.020500153E-1,9.862950325E0
3.486621878E0,-1.300500035E-1,1.729500145E-1,9.846000671E0
3.489122188E0,-1.369500011E-1,1.540500075E-1,9.853050232E0
3.491622600E0,-1.369500011E-1,1.279500127E-1,9.843000412E0
3.494122909E0,-1.369500011E-1,9.705000371E-2,9.838950157E0
3.496623446E0,-1.800000072E-1,8.205000311E-2,9.847950935E0
3.499123756E0,-1.920000017E-1,8.205000311E-2,9.858000755E0
3.501624068E0,-1.939500123E-1,7.995000482E-2,9.847950935E0
3.504124451E0,-2.110500038E-1,6.105000153E-2,9.862950325E0
3.506624761E0,-2.320500165E-1,5.595000088E-2,9.859950066E0
3.509125297E0,-2.320500165E-1,3.705000132E-2,9.855000496E0
3.511625578E0,-2.419500053E-1,4.095000029E-2,9.853050232E0
3.514125960E0,-2.659500241E-1,3.405000269E-2,9.858000755E0
3.516626499E0,-2.779500186E-1,1.500000060E-2,9.838950157E0
3.519126808E0,-2.850000262E-1,-1.050000079E-3,9.850950241E0
3.521627191E0,-2.800500095E-1,-1.050000079E-3,9.853050232E0
3.524127511E0,-2.830500007E-1,-2.700000070E-2,9.871950150E0
3.526628047E0,-2.539499998E-1,-3.195000067E-2,9.871950150E0
3.529128357E0,-2.590500116E-1,-5.595000088E-2,9.877050400E0
3.531628740E0,-2.539499998E-1,-6.000000238E-2,9.865050316E0
3.534129039E0,-2.440500110E-1,-9.600000083E-2,9.862950325E0
3.536629576E0,-2.350500077E-1,-9.600000083E-2,9.859950066E0
3.539129885E0,-2.160000056E-1,-1.129500046E-1,9.831000328E0
3.541630268E0,-2.110500038E-1,-1.390500069E-1,9.847950935E0
3.544130598E0,-1.849500090E-1,-1.180500090E-1,9.862950325E0
3.546631134E0,-1.489500105E-1,-1.270500124E-1,9.870000839E0
3.549131521E0,-1.530000120E-1,-1.270500124E-1,9.853050232E0
3.551631829E0,-1.459500045E-1,-1.159500033E-1,9.853050232E0
3.554132370E0,-1.270500124E-1,-1.060500070E-1,9.846000671E0
3.556632680E0,-1.080000028E-1,-1.110000089E-1,9.834000587E0
3.559132987E0,-8.895000070E-2,-8.700000495E-2,9.855000496E0
3.561633370E0,-5.505000427E-2,-9.195000678E-2,9.841050148E0
3.564133690E0,-3.900000080E-2,-9.195000678E-2,9.846000671E0
3.566634226E0,-1.200000010E-2,-8.400000632E-2,9.853050232E0
3.569134536E0,1.305000018E-2,-1.060500070E-1,9.841050148E0
3.571634919E0,3.495000303E-2,-1.110000089E-1,9.847950935E0
3.574135208E0,5.400000140E-2,-1.159500033E-1,9.841050148E0
3.576635745E0,8.505000174E-2,-1.390500069E-1,9.843000412E0
3.579136054E0,9.705000371E-2,-1.609500051E-1,9.846000671E0
3.581636437E0,1.140000075E-1,-1.780500114E-1,9.841050148E0
3.584136971E0,1.330500096E-1,-1.780500114E-1,9.841050148E0
3.586637281E0,1.519500017E-1,-1.849500090E-1,9.826950073E0
3.589137664E0,1.380000114E-1,-2.209500074E-1,9.826950073E0
3.591637973E0,1.420500129E-1,-2.260500044E-1,9.838950157E0
3.594138510E0,1.230000034E-1,-2.329500169E-1,9.834000587E0
3.596638834E0,1.140000075E-1,-2.160000056E-1,9.858000755E0
3.599139216E0,1.159500033E-1,-2.020500153E-1,9.867000580E0
3.601639526E0,9.195000678E-2,-2.070000172E-1,9.841050148E0
3.604140062E0,1.069500074E-1,-1.870500147E-1,9.834000587E0
3.606640386E0,7.800000161E-2,-1.900500059E-1,9.835950851E0
3.609140694E0,9.495000541E-2,-1.900500059E-1,9.831000328E0
3.611641076E0,8.295000345E-2,-1.870500147E-1,9.841050148E0
3.614141386E0,7.500000298E-2,-2.089500129E-1,9.841050148E0
3.616641919E0,7.500000298E-2,-1.969500035E-1,9.841050148E0
3.619142305E0,5.895000324E-2,-2.070000172E-1,9.855000496E0
3.621642842E0,5.400000140E-2,-2.040000111E-1,9.853050232E0
3.624143151E0,5.100000277E-2,-2.070000172E-1,9.870000839E0
3.626643459E0,4.905000329E-2,-2.110500038E-1,9.841050148E0
3.629143846E0,6.795000285E-2,-2.110500038E-1,9.850950241E0
3.631644155E0,5.400000140E-2,-2.230500132E-1,9.850950241E0
3.634144692E0,5.895000324E-2,-2.089500129E-1,9.841050148E0
3.636645002E0,4.905000329E-2,-2.089500129E-1,9.850950241E0
3.639145399E0,5.895000324E-2,-1.920000017E-1,9.853050232E0
3.641645709E0,3.900000080E-2,-1.830000132E-1,9.847950935E0
3.644146245E0,3.900000080E-2,-1.780500114E-1,9.847950935E0
3.646646555E0,3.495000303E-2,-1.420500129E-1,9.853050232E0
3.649146938E0,4.395000264E-2,-1.440000087E-1,9.865050316E0
3.651647514E0,4.395000264E-2,-1.319999993E-1,9.850950241E0
3.654147824E0,5.400000140E-2,-1.270500124E-1,9.843000412E0
3.656648206E0,6.599999964E-2,-1.110000089E-1,9.841050148E0
3.659148516E0,7.500000298E-2,-8.700000495E-2,9.834000587E0
3.661649034E0,6.105000153E-2,-8.400000632E-2,9.826950073E0
3.664149343E0,6.795000285E-2,-9.405000508E-2,9.838950157E0
3.666649651E0,5.895000324E-2,-8.400000632E-2,9.846000671E0
3.669150034E0,7.304999977E-2,-6.000000238E-2,9.838950157E0
3.671650343E0,9.195000678E-2,-7.500000298E-2,9.846000671E0
3.674150880E0,1.039500013E-1,-6.795000285E-2,9.829050064E0
3.676651190E0,1.350000054E-1,-9.195000678E-2,9.829050064E0
3.679151572E0,1.350000054E-1,-8.700000495E-2,9.846000671E0
3.681651882E0,1.420500129E-1,-9.195000678E-2,9.831000328E0
3.684152403E0,1.759500057E-1,-7.695000619E-2,9.834000587E0
3.686652790E0,1.860000044E-1,-7.005000114E-2,9.838950157E0
3.689153098E0,1.930500120E-1,-7.200000435E-2,9.841050148E0
3.691653634E0,2.310000062E-1,-7.005000114E-2,9.835950851E0
3.694153930E0,2.650500238E-1,-6.495000422E-2,9.838950157E0
3.696654312E0,2.959500253E-1,-6.000000238E-2,9.846000671E0
3.699154622E0,3.100500107E-1,-5.595000088E-2,9.823950768E0
3.701655159E0,3.169500232E-1,-7.200000435E-2,9.810000420E0
3.704155473E0,3.289500177E-1,-4.800000042E-2,9.819000244E0
3.706655856E0,3.240000010E-1,-5.595000088E-2,9.835950851E0
3.709156166E0,3.289500177E-1,-4.605000094E-2,9.826950073E0
3.711656473E0,3.460500240E-1,-3.405000269E-2,9.847950935E0
3.714157010E0,3.460500240E-1,-4.605000094E-2,9.826950073E0
3.716657309E0,3.439500034E-1,-3.405000269E-2,9.838950157E0
3.719157923E0,3.289500177E-1,-4.095000029E-2,9.838950157E0
3.721658233E0,3.409500122E-1,-3.900000080E-2,9.829050064E0
3.724158617E0,3.030000031E-1,-3.195000067E-2,9.811950684E0
3.726658943E0,3.030000031E-1,-2.505000122E-2,9.823950768E0
3.729159251E0,2.860500216E-1,-2.700000070E-2,9.829050064E0
3.731659787E0,2.689500153E-1,-1.995000057E-2,9.823950768E0
3.734160097E0,2.550000250E-1,-1.695000008E-2,9.846000671E0
3.736660461E0,2.260500044E-1,1.800000109E-2,9.850950241E0
3.739160771E0,2.020500153E-1,3.000000119E-2,9.841050148E0
3.741661308E0,1.740000099E-1,4.905000329E-2,9.847950935E0
3.744161617E0,1.540500075E-1,5.295000225E-2,9.843000412E0
3.746662028E0,1.180500090E-1,5.295000225E-2,9.829050064E0
3.749162338E0,7.995000482E-2,8.700000495E-2,9.843000412E0
3.751662874E0,4.905000329E-2,1.039500013E-1,9.843000412E0
3.754163261E0,3.195000067E-2,1.300500035E-1,9.826950073E0
3.756663568E0,-2.400000021E-2,1.420500129E-1,9.835950851E0
3.759164105E0,-3.900000080E-2,1.680000126E-1,9.853050232E0
3.761664415E0,-6.705000252E-2,1.729500145E-1,9.865050316E0
3.764164797E0,-7.200000435E-2,1.950000077E-1,9.855000496E0
3.766665107E0,-1.030500084E-1,2.040000111E-1,9.858000755E0
3.769165624E0,-1.060500070E-1,2.110500038E-1,9.846000671E0
3.771665934E0,-1.459500045E-1,2.380500138E-1,9.838950157E0
3.774166317E0,-1.530000120E-1,2.209500074E-1,9.850950241E0
3.776666626E0,-1.819500029E-1,2.380500138E-1,9.838950157E0
3.779166934E0,-1.819500029E-1,2.550000250E-1,9.853050232E0
3.781667470E0,-1.990500093E-1,2.620500028E-1,9.882000923E0
3.784167857E0,-2.179500163E-1,2.790000141E-1,9.867000580E0
3.786668165E0,-2.280000150E-1,2.550000250E-1,9.858000755E0
3.789168705E0,-2.370000184E-1,2.880000174E-1,9.862950325E0
3.791669015E0,-2.590500116E-1,2.899500132E-1,9.865050316E0
3.794169398E0,-2.830500007E-1,2.980500162E-1,9.847950935E0
3.796669707E0,-3.070500195E-1,2.809500098E-1,9.834000587E0
3.799170231E0,-3.019500077E-1,3.139500022E-1,9.858000755E0
3.801670540E0,-3.160500228E-1,3.190500140E-1,9.858000755E0
3.804170923E0,-3.070500195E-1,3.190500140E-1,9.862950325E0
3.806671233E0,-3.259500265E-1,3.409500122E-1,9.883950233E0
3.809171769E0,-3.450000286E-1,3.340500295E-1,9.870000839E0
3.811672060E0,-3.310500085E-1,3.259500265E-1,9.865050316E0
3.814172443E0,-3.280500174E-1,3.169500232E-1,9.865050316E0
3.816672752E0,-3.349500299E-1,3.259500265E-1,9.850950241E0
3.819173289E0,-3.210000098E-1,3.120000064E-1,9.862950325E0
3.821673670E0,-2.950500250E-1,3.139500022E-1,9.862950325E0
3.824173978E0,-2.730000019E-1,3.019500077E-1,9.847950935E0
3.826674515E0,-2.419500053E-1,3.100500107E-1,9.874950409E0
3.829174824E0,-1.990500093E-1,2.899500132E-1,9.855000496E0
3.831675156E0,-1.729500145E-1,2.790000141E-1,9.858000755E0
3.834175539E0,-1.510500014E-1,2.550000250E-1,9.850950241E0
3.836675848E0,-1.319999993E-1,2.639999986E-1,9.831000328E0
3.839176385E0,-9.405000508E-2,2.470500171E-1,9.843000412E0
3.841676694E0,-8.205000311E-2,2.230500132E-1,9.846000671E0
3.844177077E0,-5.295000225E-2,2.160000056E-1,9.847950935E0
3.846677387E0,-5.505000427E-2,2.070000172E-1,9.855000496E0
3.849177923E0,-5.505000427E-2,2.190000117E-1,9.858000755E0
3.851678233E0,-3.900000080E-2,2.329500169E-1,9.850950241E0
3.854178639E0,-5.505000427E-2,2.070000172E-1,9.862950325E0
3.856679177E0,-5.295000225E-2,2.140500098E-1,9.855000496E0
3.859179487E0,-4.605000094E-2,2.280000150E-1,9.846000671E0
3.861679869E0,-5.805000290E-2,2.110500038E-1,9.841050148E0
3.864180179E0,-7.905000448E-2,2.380500138E-1,9.843000412E0
3.866680715E0,-9.105000645E-2,2.110500038E-1,9.855000496E0
3.869181025E0,-1.180500090E-1,2.070000172E-1,9.835950851E0
3.871681408E0,-1.150500029E-1,2.070000172E-1,9.846000671E0
3.874181717E0,-1.219500080E-1,2.070000172E-1,9.871950150E0
3.876682264E0,-1.609500051E-1,2.230500132E-1,9.855000496E0
3.879182574E0,-1.510500014E-1,2.020500153E-1,9.846000671E0
3.881682956E0,-1.729500145E-1,1.780500114E-1,9.855000496E0
3.884183266E0,-1.650000066E-1,1.660500020E-1,9.850950241E0
3.886683574E0,-1.489500105E-1,1.590000093E-1,9.853050232E0
3.889184105E0,-1.530000120E-1,1.300500035E-1,9.841050148E0
3.891684492E0,-1.459500045E-1,1.319999993E-1,9.847950935E0
3.894184799E0,-1.510500014E-1,1.519500017E-1,9.850950241E0
3.896685302E0,-1.560000032E-1,1.350000054E-1,9.862950325E0
3.899185689E0,-1.369500011E-1,1.319999993E-1,9.867000580E0
3.901685996E0,-1.099500060E-1,1.369500011E-1,9.865050316E0
3.904186304E0,-1.440000087E-1,1.300500035E-1,9.853050232E0
3.906686840E0,-1.339500099E-1,1.249500066E-1,9.846000671E0
3.909187145E0,-1.410000026E-1,1.180500090E-1,9.855000496E0
3.911687528E0,-1.300500035E-1,1.180500090E-1,9.847950935E0
3.914187837E0,-1.180500090E-1,1.210500076E-1,9.834000587E0
3.916688374E0,-1.200000048E-1,1.249500066E-1,9.826950073E0
3.919188675E0,-1.270500124E-1,1.159500033E-1,9.846000671E0
3.921689057E0,-1.150500029E-1,1.110000089E-1,9.841050148E0
3.924189596E0,-1.099500060E-1,1.090500057E-1,9.850950241E0
3.926689905E0,-9.105000645E-2,1.039500013E-1,9.850950241E0
3.929190292E0,-9.795000404E-2,8.205000311E-2,9.853050232E0
3.931690602E0,-8.595000207E-2,8.505000174E-2,9.855000496E0
3.934191138E0,-8.595000207E-2,8.895000070E-2,9.831000328E0
3.936691448E0,-4.605000094E-2,9.405000508E-2,9.843000412E0
3.939191756E0,-3.105000220E-2,6.300000101E-2,9.843000412E0
3.941692158E0,-3.405000269E-2,8.205000311E-2,9.853050232E0
3.944192468E0,-1.695000008E-2,7.500000298E-2,9.841050148E0
3.946693004E0,4.050000105E-3,6.795000285E-2,9.847950935E0
3.949193314E0,6.000000052E-3,6.795000285E-2,9.850950241E0
3.951693687E0,7.950000465E-3,5.805000290E-2,9.841050148E0
3.954194225E0,2.295000106E-2,4.395000264E-2,9.838950157E0
3.956694535E0,1.995000057E-2,6.495000422E-2,9.834000587E0
3.959194917E0,1.305000018E-2,6.495000422E-2,9.843000412E0
3.961695227E0,1.800000109E-2,5.100000277E-2,9.850950241E0
3.964195764E0,6.000000052E-3,5.595000088E-2,9.859950066E0
3.966696073E0,7.950000465E-3,5.295000225E-2,9.853050232E0
3.969196456E0,6.000000052E-3,6.105000153E-2,9.858000755E0
3.971696775E0,4.050000105E-3,6.105000153E-2,9.855000496E0
3.974197311E0,-3.000000026E-3,3.705000132E-2,9.855000496E0
3.976697621E0,-4.950000439E-3,4.395000264E-2,9.843000412E0
3.979198003E0,7.950000465E-3,2.700000070E-2,9.843000412E0
3.981698313E0,6.000000052E-3,1.305000018E-2,9.847950935E0
3.984198865E0,2.505000122E-2,6.000000052E-3,9.826950073E0
3.986699174E0,3.195000067E-2,1.050000079E-3,9.847950935E0
3.989199482E0,7.950000465E-3,-4.095000029E-2,9.862950325E0
3.991699865E0,1.605000161E-2,-2.895000204E-2,9.862950325E0
3.994200403E0,1.605000161E-2,-1.005000062E-2,9.847950935E0
3.996700790E0,4.395000264E-2,-2.205000073E-2,9.843000412E0
3.999201097E0,1.800000109E-2,-2.700000070E-2,9.858000755E0
4.001701405E0,2.505000122E-2,-3.405000269E-2,9.841050148E0
4.004201922E0,2.295000106E-2,-4.395000264E-2,9.834000587E0
4.006702231E0,2.505000122E-2,-4.095000029E-2,9.847950935E0
4.009202614E0,7.950000465E-3,-6.495000422E-2,9.850950241E0
4.011702924E0,4.050000105E-3,-5.595000088E-2,9.846000671E0
4.014203446E0,7.950000465E-3,-8.205000311E-2,9.843000412E0
4.016703756E0,-7.050000131E-3,-8.895000070E-2,9.859950066E0
4.019204138E0,-4.950000439E-3,-9.195000678E-2,9.841050148E0
4.021704448E0,-4.950000439E-3,-1.009500027E-1,9.858000755E0
4.024204985E0,1.050000079E-3,-1.159500033E-1,9.853050232E0
4.026705361E0,-7.050000131E-3,-1.230000034E-1,9.841050148E0
4.029205669E0,1.605000161E-2,-1.350000054E-1,9.838950157E0
4.031705977E0,1.305000018E-2,-1.420500129E-1,9.847950935E0
4.034206513E0,4.200000316E-2,-1.510500014E-1,9.850950241E0
4.036706823E0,4.905000329E-2,-1.510500014E-1,9.850950241E0
4.039207205E0,4.200000316E-2,-1.660500020E-1,9.867000580E0
4.041707515E0,8.295000345E-2,-1.680000126E-1,9.853050232E0
4.044208051E0,7.095000148E-2,-1.660500020E-1,9.843000412E0
4.046708361E0,9.495000541E-2,-1.590000093E-1,9.846000671E0
4.049208735E0,1.020000055E-1,-1.420500129E-1,9.841050148E0
4.051709045E0,1.230000034E-1,-1.300500035E-1,9.847950935E0
4.054209581E0,1.350000054E-1,-1.270500124E-1,9.841050148E0
4.056709891E0,1.450500041E-1,-1.180500090E-1,9.835950851E0
4.059210273E0,1.620000005E-1,-1.129500046E-1,9.834000587E0
4.061710578E0,1.759500057E-1,-1.129500046E-1,9.831000328E0
4.064211114E0,1.660500020E-1,-9.405000508E-2,9.835950851E0
4.066711501E0,1.639500111E-1,-9.405000508E-2,9.843000412E0
4.069211809E0,1.710000038E-1,-9.195000678E-2,9.829050064E0
4.071712345E0,1.690500081E-1,-1.060500070E-1,9.831000328E0
4.074212655E0,1.660500020E-1,-8.205000311E-2,9.838950157E0
4.076713038E0,1.710000038E-1,-8.700000495E-2,9.841050148E0
4.079213347E0,1.570500135E-1,-7.695000619E-2,9.831000328E0
4.081713903E0,1.860000044E-1,-8.205000311E-2,9.850950241E0
4.084214212E0,1.590000093E-1,-7.200000435E-2,9.843000412E0
4.086714595E0,1.450500041E-1,-7.995000482E-2,9.847950935E0
4.089214905E0,1.230000034E-1,-8.400000632E-2,9.835950851E0
4.091715212E0,1.180500090E-1,-7.200000435E-2,9.835950851E0
4.094215749E0,1.180500090E-1,-6.795000285E-2,9.843000412E0
4.096716136E0,1.090500057E-1,-7.995000482E-2,9.841050148E0
4.099216443E0,8.295000345E-2,-7.500000298E-2,9.853050232E0
4.101716999E0,5.100000277E-2,-5.595000088E-2,9.846000671E0
4.104217308E0,3.195000067E-2,-7.005000114E-2,9.850950241E0
4.106717691E0,1.995000057E-2,-7.500000298E-2,9.847950935E0
4.109218001E0,7.950000465E-3,-6.300000101E-2,9.843000412E0
4.111718523E0,-1.005000062E-2,-8.205000311E-2,9.853050232E0
4.114218833E0,-1.005000062E-2,-7.995000482E-2,9.859950066E0
4.116719216E0,-3.600000218E-2,-7.995000482E-2,9.865050316E0
4.119219525E0,-4.095000029E-2,-7.200000435E-2,9.859950066E0
4.121720062E0,-1.500000060E-2,-9.600000083E-2,9.847950935E0
4.124220380E0,4.050000105E-3,-9.900000691E-2,9.847950935E0
4.126720763E0,1.095000096E-2,-1.270500124E-1,9.850950241E0
4.129221301E0,4.200000316E-2,-1.110000089E-1,9.865050316E0
4.131721611E0,4.905000329E-2,-1.009500027E-1,9.853050232E0
4.134221985E0,8.700000495E-2,-1.159500033E-1,9.846000671E0
4.136722294E0,9.195000678E-2,-1.249500066E-1,9.846000671E0
4.139222831E0,1.180500090E-1,-1.270500124E-1,9.841050148E0
4.141723141E0,1.279500127E-1,-1.200000048E-1,9.835950851E0
4.144223537E0,1.420500129E-1,-1.159500033E-1,9.850950241E0
4.146723847E0,1.350000054E-1,-1.080000028E-1,9.843000412E0
4.149224383E0,1.279500127E-1,-1.200000048E-1,9.847950935E0
4.151724693E0,1.300500035E-1,-1.039500013E-1,9.835950851E0
4.154225006E0,1.450500041E-1,-1.009500027E-1,9.847950935E0
4.156725388E0,1.300500035E-1,-8.895000070E-2,9.843000412E0
4.159225698E0,1.180500090E-1,-8.400000632E-2,9.834000587E0
4.161726235E0,1.090500057E-1,-8.700000495E-2,9.853050232E0
4.164226544E0,7.995000482E-2,-7.005000114E-2,9.843000412E0
4.166726917E0,9.900000691E-2,-5.100000277E-2,9.843000412E0
4.169227455E0,8.295000345E-2,-6.495000422E-2,9.834000587E0
4.171727765E0,7.304999977E-2,-3.195000067E-2,9.841050148E0
4.174228148E0,6.300000101E-2,-3.705000132E-2,9.847950935E0
4.176728467E0,6.300000101E-2,-2.505000122E-2,9.855000496E0
4.179229004E0,7.095000148E-2,-2.205000073E-2,9.841050148E0
4.181729314E0,4.905000329E-2,-2.505000122E-2,9.850950241E0
4.184229696E0,3.195000067E-2,-3.195000067E-2,9.855000496E0
4.186730011E0,4.200000316E-2,-4.950000439E-3,9.835950851E0
4.189230547E0,2.295000106E-2,-3.000000026E-3,9.847950935E0
4.191730857E0,1.050000079E-3,-3.000000026E-3,9.846000671E0
4.194231240E0,0.000000000E0,7.950000465E-3,9.841050148E0
4.196731563E0,-7.050000131E-3,3.000000119E-2,9.838950157E0
4.199232100E0,-1.695000008E-2,3.900000080E-2,9.853050232E0
4.201732486E0,-2.895000204E-2,4.095000029E-2,9.853050232E0
4.204232794E0,-3.900000080E-2,6.495000422E-2,9.853050232E0
4.206733331E0,-4.800000042E-2,5.595000088E-2,9.843000412E0
4.209233640E0,-5.805000290E-2,5.805000290E-2,9.853050232E0
4.211734023E0,-5.295000225E-2,6.495000422E-2,9.847950935E0
4.214234333E0,-5.100000277E-2,6.495000422E-2,9.858000755E0
4.216734630E0,-6.705000252E-2,7.005000114E-2,9.843000412E0
4.219235167E0,-4.605000094E-2,6.495000422E-2,9.846000671E0
4.221735477E0,-5.295000225E-2,7.005000114E-2,9.841050148E0
4.224235859E0,-5.805000290E-2,3.705000132E-2,9.847950935E0
4.226736174E0,-4.800000042E-2,4.095000029E-2,9.850950241E0
4.229236710E0,-3.900000080E-2,6.495000422E-2,9.853050232E0
4.231737020E0,-3.600000218E-2,4.905000329E-2,9.841050148E0
4.234237403E0,-2.700000070E-2,4.395000264E-2,9.838950157E0
4.236737712E0,-3.405000269E-2,4.095000029E-2,9.843000412E0
4.239238249E0,-3.105000220E-2,3.705000132E-2,9.859950066E0
4.241738635E0,-3.900000080E-2,4.395000264E-2,9.838950157E0
4.244238943E0,-1.500000060E-2,3.705000132E-2,9.859950066E0
4.246739480E0,-3.405000269E-2,4.395000264E-2,9.847950935E0
4.249239789E0,-4.950000439E-3,3.405000269E-2,9.847950935E0
4.251740172E0,-1.005000062E-2,1.800000109E-2,9.855000496E0
4.254240482E0,-4.950000439E-3,2.700000070E-2,9.847950935E0
4.256741018E0,0.000000000E0,1.500000060E-2,9.850950241E0
4.259241328E0,4.050000105E-3,3.000000026E-3,9.846000671E0
4.261741705E0,0.000000000E0,-1.305000018E-2,9.846000671E0
4.264242015E0,1.050000079E-3,-1.005000062E-2,9.853050232E0
4.266742323E0,7.950000465E-3,-1.050000079E-3,9.846000671E0
4.269242859E0,-3.000000026E-3,-1.050000079E-3,9.847950935E0
4.271743242E0,7.950000465E-3,-4.950000439E-3,9.850950241E0
4.274243550E0,-1.695000008E-2,-1.050000079E-3,9.847950935E0
4.276744086E0,-1.905000024E-2,1.050000079E-3,9.853050232E0
4.279244396E0,-7.050000131E-3,1.050000079E-3,9.846000671E0
4.281744792E0,-7.050000131E-3,2.205000073E-2,9.858000755E0
4.284245102E0,-1.500000060E-2,2.700000070E-2,9.843000412E0
4.286745639E0,-2.205000073E-2,3.195000067E-2,9.853050232E0
4.289245948E0,-2.400000021E-2,4.605000094E-2,9.858000755E0
4.291746321E0,-1.905000024E-2,4.605000094E-2,9.847950935E0
4.294246631E0,-3.600000218E-2,4.905000329E-2,9.831000328E0
4.296747167E0,-5.100000277E-2,6.795000285E-2,9.841050148E0
4.299247477E0,-6.000000238E-2,1.009500027E-1,9.847950935E0
4.301747784E0,-6.195000187E-2,9.900000691E-2,9.834000587E0
4.304248182E0,-6.195000187E-2,1.230000034E-1,9.859950066E0
4.306748721E0,-7.005000114E-2,1.440000087E-1,9.855000496E0
4.309249107E0,-8.595000207E-2,1.369500011E-1,9.850950241E0
4.311749415E0,-1.009500027E-1,1.540500075E-1,9.855000496E0
4.314249955E0,-8.895000070E-2,1.519500017E-1,9.850950241E0
4.316750265E0,-7.905000448E-2,1.710000038E-1,9.853050232E0
4.319250573E0,-7.905000448E-2,1.560000032E-1,9.843000412E0
4.321750955E0,-8.400000632E-2,1.710000038E-1,9.862950325E0
4.324251265E0,-7.005000114E-2,1.800000072E-1,9.862950325E0
4.326751801E0,-5.505000427E-2,1.759500057E-1,9.850950241E0
4.329252111E0,-6.000000238E-2,1.609500051E-1,9.846000671E0
4.331752494E0,-5.100000277E-2,1.660500020E-1,9.838950157E0
4.334252803E0,-4.095000029E-2,1.680000126E-1,9.838950157E0
4.336753340E0,-3.105000220E-2,1.639500111E-1,9.853050232E0
4.339253650E0,-1.500000060E-2,1.710000038E-1,9.841050148E0
4.341754032E0,-1.005000062E-2,1.830000132E-1,9.846000671E0
4.344254571E0,-3.000000026E-3,1.780500114E-1,9.855000496E0
4.346754880E0,-1.005000062E-2,1.590000093E-1,9.838950157E0
4.349255263E0,6.000000052E-3,1.489500105E-1,9.855000496E0
4.351755573E0,1.800000109E-2,1.420500129E-1,9.855000496E0
4.354256109E0,2.805000171E-2,1.540500075E-1,9.841050148E0
4.356756419E0,1.800000109E-2,1.399500072E-1,9.850950241E0
4.359256802E0,3.495000303E-2,1.420500129E-1,9.841050148E0
4.361757111E0,4.905000329E-2,1.319999993E-1,9.847950935E0
4.364257648E0,4.395000264E-2,1.319999993E-1,9.838950157E0
4.366757967E0,3.705000132E-2,1.230000034E-1,9.846000671E0
4.369258350E0,4.200000316E-2,1.110000089E-1,9.846000671E0
4.371758660E0,3.705000132E-2,1.249500066E-1,9.847950935E0
4.374259196E0,1.995000057E-2,1.210500076E-1,9.850950241E0
4.376759525E0,2.805000171E-2,1.180500090E-1,9.853050232E0
4.379259908E0,3.495000303E-2,1.279500127E-1,9.835950851E0
4.381760217E0,1.995000057E-2,1.129500046E-1,9.834000587E0
4.384260754E0,2.805000171E-2,1.279500127E-1,9.841050148E0
4.386761063E0,3.195000067E-2,1.350000054E-1,9.835950851E0
4.389261456E0,3.495000303E-2,1.249500066E-1,9.846000671E0
4.391761766E0,3.195000067E-2,1.300500035E-1,9.838950157E0
4.394262302E0,4.695000127E-2,1.180500090E-1,9.859950066E0
4.396762612E0,3.705000132E-2,1.319999993E-1,9.855000496E0
4.399262999E0,4.395000264E-2,1.300500035E-1,9.855000496E0
4.401763309E0,4.905000329E-2,1.369500011E-1,9.846000671E0
4.404263846E0,6.599999964E-2,1.350000054E-1,9.847950935E0
4.406764155E0,7.800000161E-2,1.420500129E-1,9.853050232E0
4.409264533E0,1.020000055E-1,1.230000034E-1,9.829050064E0
4.411765071E0,1.090500057E-1,1.129500046E-1,9.835950851E0
4.414265381E0,1.399500072E-1,1.009500027E-1,9.841050148E0
4.416765764E0,1.380000114E-1,1.060500070E-1,9.846000671E0
4.419266073E0,1.759500057E-1,8.700000495E-2,9.819000244E0
4.421766376E0,1.950000077E-1,7.304999977E-2,9.822000504E0
4.424266913E0,2.119500041E-1,7.995000482E-2,9.846000671E0
4.426767222E0,2.070000172E-1,6.495000422E-2,9.835950851E0
4.429267605E0,2.089500129E-1,8.895000070E-2,9.822000504E0
4.431767929E0,2.070000172E-1,7.005000114E-2,9.831000328E0
4.434268465E0,2.050500065E-1,8.895000070E-2,9.826950073E0
4.436768775E0,1.969500035E-1,8.895000070E-2,9.834000587E0
4.439269157E0,1.830000132E-1,9.705000371E-2,9.831000328E0
4.441769463E0,1.780500114E-1,1.090500057E-1,9.855000496E0
4.444270000E0,1.710000038E-1,9.705000371E-2,9.838950157E0
4.446770386E0,1.740000099E-1,1.009500027E-1,9.846000671E0
4.449270694E0,1.469999999E-1,1.110000089E-1,9.846000671E0
4.451771220E0,1.380000114E-1,1.060500070E-1,9.834000587E0
4.454271530E0,1.180500090E-1,1.129500046E-1,9.834000587E0
4.456771913E0,1.110000089E-1,1.210500076E-1,9.850950241E0
4.459272222E0,7.800000161E-2,1.129500046E-1,9.841050148E0
4.461772759E0,7.095000148E-2,1.159500033E-1,9.834000587E0
4.464273064E0,5.595000088E-2,1.319999993E-1,9.843000412E0
4.466773446E0,1.605000161E-2,1.319999993E-1,9.847950935E0
4.469273756E0,-1.200000010E-2,1.279500127E-1,9.843000412E0
4.471774292E0,-4.095000029E-2,1.489500105E-1,9.834000587E0
4.474274588E0,-5.805000290E-2,1.319999993E-1,9.850950241E0
4.476774896E0,-7.200000435E-2,1.420500129E-1,9.841050148E0
4.479275278E0,-1.129500046E-1,1.560000032E-1,9.847950935E0
4.481775817E0,-1.300500035E-1,1.420500129E-1,9.862950325E0
4.484276107E0,-1.750500053E-1,1.469999999E-1,9.858000755E0
4.486776489E0,-2.200500071E-1,1.540500075E-1,9.858000755E0
4.489276799E0,-2.299500108E-1,1.540500075E-1,9.847950935E0
4.491777335E0,-2.639999986E-1,1.540500075E-1,9.846000671E0
4.494277645E0,-2.680500150E-1,1.399500072E-1,9.862950325E0
4.496778000E0,-2.730000019E-1,1.440000087E-1,9.879000664E0
4.499278309E0,-2.830500007E-1,1.519500017E-1,9.871950150E0
4.501778846E0,-2.950500250E-1,1.230000034E-1,9.862950325E0
4.504279156E0,-2.920500040E-1,1.180500090E-1,9.871950150E0
4.506779534E0,-2.920500040E-1,9.195000678E-2,9.846000671E0
4.509279844E0,-2.899500132E-1,9.195000678E-2,9.870000839E0
4.511780380E0,-2.850000262E-1,8.505000174E-2,9.855000496E0
4.514280690E0,-2.639999986E-1,7.995000482E-2,9.853050232E0
4.516781073E0,-2.440500110E-1,7.695000619E-2,9.853050232E0
4.519281611E0,-2.370000184E-1,6.105000153E-2,9.858000755E0
4.521781921E0,-2.350500077E-1,4.905000329E-2,9.850950241E0
4.524282303E0,-2.040000111E-1,6.300000101E-2,9.846000671E0
4.526782613E0,-1.699500084E-1,5.100000277E-2,9.847950935E0
4.529282925E0,-1.489500105E-1,4.905000329E-2,9.847950935E0
4.531783461E0,-1.200000048E-1,5.295000225E-2,9.862950325E0
4.534283771E0,-1.150500029E-1,3.195000067E-2,9.841050148E0
4.536784154E0,-5.505000427E-2,1.995000057E-2,9.855000496E0
4.539284463E0,-1.905000024E-2,1.500000060E-2,9.850950241E0
4.541785000E0,-7.050000131E-3,2.205000073E-2,9.846000671E0
4.544285309E0,1.095000096E-2,2.505000122E-2,9.847950935E0
4.546785692E0,3.195000067E-2,6.000000052E-3,9.829050064E0
4.549286002E0,7.095000148E-2,-4.950000439E-3,9.841050148E0
4.551786529E0,1.110000089E-1,1.050000079E-3,9.838950157E0
4.554286916E0,1.350000054E-1,-1.995000057E-2,9.846000671E0
4.556787224E0,1.399500072E-1,-7.950000465E-3,9.843000412E0
4.559287760E0,1.639500111E-1,-1.305000018E-2,9.835950851E0
4.561788070E0,1.810500026E-1,-3.405000269E-2,9.858000755E0
4.564288452E0,1.740000099E-1,-3.195000067E-2,9.831000328E0
4.566788762E0,1.740000099E-1,-2.205000073E-2,9.822000504E0
4.569289299E0,1.740000099E-1,-1.305000018E-2,9.855000496E0
4.571789608E0,1.540500075E-1,-1.305000018E-2,9.847950935E0
4.574290000E0,1.540500075E-1,-3.000000026E-3,9.843000412E0
4.576790310E0,1.450500041E-1,-3.000000026E-3,9.843000412E0
4.579290617E0,1.210500076E-1,7.950000465E-3,9.838950157E0
4.581791154E0,1.159500033E-1,3.000000026E-3,9.831000328E0
4.584291482E0,9.900000691E-2,7.950000465E-3,9.846000671E0
4.586791865E0,9.195000678E-2,1.005000062E-2,9.843000412E0
4.589292403E0,9.195000678E-2,1.995000057E-2,9.847950935E0
4.591792790E0,9.000000358E-2,1.800000109E-2,9.850950241E0
4.594293098E0,8.700000495E-2,5.100000277E-2,9.850950241E0
4.596793411E0,8.505000174E-2,4.605000094E-2,9.841050148E0
4.599293947E0,8.700000495E-2,3.405000269E-2,9.843000412E0
4.601794257E0,1.110000089E-1,3.195000067E-2,9.819000244E0
4.604294639E0,1.039500013E-1,1.800000109E-2,9.846000671E0
4.606794939E0,1.090500057E-1,3.000000119E-2,9.831000328E0
4.609295475E0,7.800000161E-2,2.700000070E-2,9.846000671E0
4.611795785E0,7.095000148E-2,2.505000122E-2,9.841050148E0
4.614296168E0,4.695000127E-2,3.705000132E-2,9.846000671E0
4.616796477E0,3.195000067E-2,1.305000018E-2,9.846000671E0
4.619297014E0,1.305000018E-2,3.195000067E-2,9.862950325E0
4.621797401E0,4.050000105E-3,3.195000067E-2,9.847950935E0
4.624297708E0,-1.905000024E-2,5.295000225E-2,9.846000671E0
4.626798245E0,-4.605000094E-2,3.900000080E-2,9.858000755E0
4.629298564E0,-7.200000435E-2,3.900000080E-2,9.853050232E0
4.631798947E0,-8.400000632E-2,5.100000277E-2,9.835950851E0
4.634299257E0,-8.895000070E-2,4.905000329E-2,9.838950157E0
4.636799793E0,-1.009500027E-1,5.805000290E-2,9.858000755E0
4.639300103E0,-1.009500027E-1,5.100000277E-2,9.859950066E0
4.641800435E0,-1.080000028E-1,6.495000422E-2,9.858000755E0
4.644300817E0,-1.060500070E-1,5.805000290E-2,9.841050148E0
4.646801127E0,-8.895000070E-2,6.495000422E-2,9.858000755E0
4.649301663E0,-1.099500060E-1,5.295000225E-2,9.846000671E0
4.651801959E0,-1.030500084E-1,3.705000132E-2,9.853050232E0
4.654302342E0,-1.030500084E-1,6.495000422E-2,9.855000496E0
4.656802880E0,-9.405000508E-2,7.995000482E-2,9.835950851E0
4.659303190E0,-8.895000070E-2,6.300000101E-2,9.847950935E0
4.661803587E0,-8.895000070E-2,7.500000298E-2,9.865050316E0
4.664303896E0,-8.895000070E-2,6.105000153E-2,9.862950325E0
4.666804433E0,-8.595000207E-2,7.005000114E-2,9.858000755E0
4.669304742E0,-7.200000435E-2,6.495000422E-2,9.847950935E0
4.671805125E0,-9.795000404E-2,7.304999977E-2,9.865050316E0
4.674305459E0,-6.495000422E-2,7.005000114E-2,9.855000496E0
4.676805995E0,-7.200000435E-2,7.005000114E-2,9.847950935E0
4.679306305E0,-4.305000231E-2,7.304999977E-2,9.855000496E0
4.681806613E0,-3.600000218E-2,6.795000285E-2,9.850950241E0
4.684306995E0,-3.105000220E-2,6.300000101E-2,9.846000671E0
4.686807305E0,-2.700000070E-2,5.100000277E-2,9.850950241E0
4.689307841E0,0.000000000E0,3.900000080E-2,9.841050148E0
4.691808151E0,2.805000171E-2,3.705000132E-2,9.838950157E0
4.694308764E0,3.195000067E-2,2.205000073E-2,9.855000496E0
4.696809074E0,3.195000067E-2,1.305000018E-2,9.841050148E0
4.699309459E0,5.895000324E-2,1.005000062E-2,9.831000328E0
4.701809766E0,4.905000329E-2,-1.995000057E-2,9.846000671E0
4.704310074E0,4.905000329E-2,-2.205000073E-2,9.838950157E0
4.706810601E0,3.705000132E-2,-3.900000080E-2,9.834000587E0
4.709310910E0,4.200000316E-2,-3.195000067E-2,9.841050148E0
4.711811293E0,3.705000132E-2,-3.705000132E-2,9.843000412E0
4.714311603E0,1.800000109E-2,-4.395000264E-2,9.855000496E0
4.716812125E0,1.095000096E-2,-4.095000029E-2,9.850950241E0
4.719312435E0,0.000000000E0,-3.405000269E-2,9.862950325E0
4.721812817E0,1.095000096E-2,-3.195000067E-2,9.855000496E0
4.724313127E0,-2.895000204E-2,-6.000000238E-2,9.843000412E0
4.726813673E0,1.050000079E-3,-3.900000080E-2,9.834000587E0
4.729314059E0,-2.205000073E-2,-4.605000094E-2,9.847950935E0
4.731814367E0,-1.005000062E-2,-1.995000057E-2,9.838950157E0
4.734314903E0,0.000000000E0,-2.505000122E-2,9.843000412E0
4.736815213E0,-1.695000008E-2,-1.695000008E-2,9.850950241E0
4.739315577E0,-3.000000026E-3,-2.700000070E-2,9.859950066E0
4.741815886E0,7.950000465E-3,-2.700000070E-2,9.841050148E0
4.744316423E0,1.095000096E-2,-1.005000062E-2,9.846000671E0
4.746816733E0,2.805000171E-2,-1.995000057E-2,9.835950851E0
4.749317035E0,4.050000105E-3,-1.500000060E-2,9.846000671E0
4.751817418E0,-4.950000439E-3,-7.950000465E-3,9.841050148E0
4.754317728E0,1.605000161E-2,1.005000062E-2,9.847950935E0
4.756818264E0,-1.005000062E-2,1.500000060E-2,9.850950241E0
4.759318574E0,-1.695000008E-2,6.000000052E-3,9.841050148E0
4.761818937E0,-3.900000080E-2,2.505000122E-2,9.843000412E0
4.764319247E0,-6.195000187E-2,3.195000067E-2,9.853050232E0
4.766819784E0,-7.005000114E-2,5.295000225E-2,9.847950935E0
4.769320170E0,-8.895000070E-2,4.095000029E-2,9.853050232E0
4.771820464E0,-1.030500084E-1,5.100000277E-2,9.858000755E0
4.774321000E0,-1.030500084E-1,4.905000329E-2,9.855000496E0
4.776821310E0,-1.030500084E-1,7.304999977E-2,9.847950935E0
4.779321693E0,-1.200000048E-1,7.995000482E-2,9.846000671E0
4.781822016E0,-1.200000048E-1,7.500000298E-2,9.847950935E0
4.784322553E0,-1.080000028E-1,8.700000495E-2,9.850950241E0
4.786822862E0,-7.905000448E-2,1.090500057E-1,9.858000755E0
4.789323245E0,-9.105000645E-2,8.205000311E-2,9.859950066E0
4.791823550E0,-6.495000422E-2,9.705000371E-2,9.853050232E0
4.794324086E0,-8.205000311E-2,7.500000298E-2,9.847950935E0
4.796824396E0,-6.705000252E-2,6.795000285E-2,9.847950935E0
4.799324779E0,-6.000000238E-2,7.005000114E-2,9.846000671E0
4.801825317E0,-7.200000435E-2,5.595000088E-2,9.838950157E0
4.804325627E0,-7.200000435E-2,6.105000153E-2,9.850950241E0
4.806825934E0,-8.595000207E-2,5.100000277E-2,9.859950066E0
4.809326317E0,-8.895000070E-2,4.095000029E-2,9.858000755E0
4.811826613E0,-8.895000070E-2,3.705000132E-2,9.846000671E0
4.814327149E0,-1.060500070E-1,3.000000119E-2,9.838950157E0
4.816827459E0,-1.099500060E-1,3.705000132E-2,9.846000671E0
4.819327842E0,-9.405000508E-2,1.800000109E-2,9.853050232E0
4.821828151E0,-8.205000311E-2,2.505000122E-2,9.862950325E0
4.824328712E0,-8.400000632E-2,1.800000109E-2,9.855000496E0
4.826829021E0,-8.205000311E-2,3.000000026E-3,9.838950157E0
4.829329404E0,-8.595000207E-2,2.700000070E-2,9.855000496E0
4.831829714E0,-9.405000508E-2,2.505000122E-2,9.855000496E0
4.834330240E0,-7.200000435E-2,3.900000080E-2,9.850950241E0
4.836830627E0,-6.705000252E-2,3.195000067E-2,9.843000412E0
4.839330935E0,-7.695000619E-2,1.800000109E-2,9.862950325E0
4.841831471E0,-4.800000042E-2,2.700000070E-2,9.850950241E0
4.844331781E0,-5.295000225E-2,4.395000264E-2,9.853050232E0
4.846832149E0,-3.900000080E-2,3.195000067E-2,9.847950935E0
4.849332459E0,-4.800000042E-2,3.900000080E-2,9.843000412E0
4.851832995E0,-5.505000427E-2,4.395000264E-2,9.843000412E0
4.854333305E0,-6.705000252E-2,4.095000029E-2,9.850950241E0
4.856833683E0,-7.695000619E-2,6.495000422E-2,9.859950066E0
4.859333993E0,-9.105000645E-2,4.905000329E-2,9.853050232E0
4.861834529E0,-8.400000632E-2,7.995000482E-2,9.858000755E0
4.864334839E0,-9.600000083E-2,8.700000495E-2,9.865050316E0
4.866835221E0,-1.180500090E-1,7.005000114E-2,9.858000755E0
4.869335536E0,-9.600000083E-2,8.895000070E-2,9.838950157E0
4.871836072E0,-8.895000070E-2,9.195000678E-2,9.843000412E0
4.874336382E0,-9.795000404E-2,1.230000034E-1,9.850950241E0
4.876836765E0,-1.009500027E-1,1.129500046E-1,9.855000496E0
4.879337093E0,-6.195000187E-2,1.090500057E-1,9.855000496E0
4.881837630E0,-5.295000225E-2,1.039500013E-1,9.859950066E0
4.884337940E0,-2.700000070E-2,1.060500070E-1,9.858000755E0
4.886838322E0,-2.895000204E-2,1.129500046E-1,9.847950935E0
4.889338622E0,0.000000000E0,1.110000089E-1,9.846000671E0
4.891839158E0,6.000000052E-3,8.895000070E-2,9.826950073E0
4.894339468E0,1.800000109E-2,8.895000070E-2,9.847950935E0
4.896839776E0,3.900000080E-2,8.895000070E-2,9.835950851E0
4.899340158E0,3.900000080E-2,7.005000114E-2,9.843000412E0
4.901840463E0,4.905000329E-2,7.695000619E-2,9.846000671E0
4.904341000E0,5.100000277E-2,8.205000311E-2,9.835950851E0
4.906841309E0,6.105000153E-2,7.695000619E-2,9.835950851E0
4.909341692E0,4.695000127E-2,6.495000422E-2,9.835950851E0
4.911842278E0,6.300000101E-2,7.500000298E-2,9.834000587E0
4.914342588E0,4.695000127E-2,7.500000298E-2,9.838950157E0
4.916842971E0,5.400000140E-2,6.795000285E-2,9.846000671E0
4.919343280E0,4.905000329E-2,9.900000691E-2,9.850950241E0
4.921843817E0,6.105000153E-2,7.005000114E-2,9.835950851E0
4.924344132E0,6.795000285E-2,7.304999977E-2,9.846000671E0
4.926844514E0,6.795000285E-2,9.195000678E-2,9.831000328E0
4.929344824E0,7.800000161E-2,7.995000482E-2,9.838950157E0
4.931845360E0,9.705000371E-2,8.505000174E-2,9.855000496E0
4.934345675E0,9.705000371E-2,8.700000495E-2,9.846000671E0
4.936846058E0,9.705000371E-2,7.995000482E-2,9.858000755E0
4.939346367E0,1.069500074E-1,5.595000088E-2,9.850950241E0
4.941846904E0,1.210500076E-1,7.500000298E-2,9.841050148E0
4.944347290E0,1.140000075E-1,7.304999977E-2,9.835950851E0
4.946847598E0,1.020000055E-1,6.300000101E-2,9.829050064E0
4.949348135E0,1.090500057E-1,7.695000619E-2,9.838950157E0
4.951848444E0,1.159500033E-1,4.605000094E-2,9.829050064E0
4.954348827E0,9.000000358E-2,6.795000285E-2,9.847950935E0
4.956849123E0,9.000000358E-2,7.005000114E-2,9.853050232E0
4.959349659E0,6.105000153E-2,7.995000482E-2,9.829050064E0
4.961849969E0,4.395000264E-2,7.995000482E-2,9.847950935E0
4.964350277E0,3.705000132E-2,7.005000114E-2,9.822000504E0
4.966850644E0,3.495000303E-2,7.500000298E-2,9.835950851E0
4.969350954E0,1.995000057E-2,7.304999977E-2,9.841050148E0
4.971851490E0,1.605000161E-2,8.205000311E-2,9.858000755E0
4.974351800E0,1.800000109E-2,6.795000285E-2,9.841050148E0
4.976852149E0,4.200000316E-2,7.304999977E-2,9.846000671E0
4.979352687E0,1.995000057E-2,7.695000619E-2,9.841050148E0
4.981852997E0,1.995000057E-2,6.105000153E-2,9.841050148E0
4.984353379E0,5.400000140E-2,6.795000285E-2,9.838950157E0
4.986853694E0,5.895000324E-2,5.595000088E-2,9.850950241E0
4.989354231E0,7.304999977E-2,5.100000277E-2,9.843000412E0
4.991854540E0,8.505000174E-2,5.295000225E-2,9.831000328E0
4.994354923E0,7.095000148E-2,4.395000264E-2,9.847950935E0
4.996855233E0,7.995000482E-2,3.000000119E-2,9.846000671E0
4.999355769E0,9.195000678E-2,3.705000132E-2,9.829050064E0
5.001856079E0,7.800000161E-2,5.295000225E-2,9.855000496E0
5.004356461E0,7.995000482E-2,4.395000264E-2,9.834000587E0
5.006856766E0,8.505000174E-2,5.100000277E-2,9.865050316E0
5.009357303E0,7.304999977E-2,3.000000119E-2,9.846000671E0
5.011857612E0,9.195000678E-2,3.405000269E-2,9.855000496E0
5.014357995E0,7.095000148E-2,3.900000080E-2,9.835950851E0
5.016858305E0,4.905000329E-2,3.000000119E-2,9.843000412E0
5.019358860E0,6.795000285E-2,2.205000073E-2,9.838950157E0
5.021859170E0,5.895000324E-2,3.000000119E-2,9.841050148E0
5.024359552E0,6.300000101E-2,2.505000122E-2,9.841050148E0
5.026859862E0,5.400000140E-2,3.900000080E-2,9.853050232E0
5.029360414E0,7.095000148E-2,2.700000070E-2,9.834000587E0
5.031860723E0,6.599999964E-2,3.705000132E-2,9.823950768E0
5.034361106E0,4.905000329E-2,2.700000070E-2,9.843000412E0
5.036861416E0,5.400000140E-2,3.000000119E-2,9.841050148E0
5.039361937E0,4.395000264E-2,3.000000119E-2,9.843000412E0
5.041862247E0,3.495000303E-2,6.000000052E-3,9.831000328E0
5.044362629E0,6.000000052E-3,1.995000057E-2,9.843000412E0
5.046862939E0,1.050000079E-3,1.005000062E-2,9.838950157E0
5.049363467E0,-1.500000060E-2,1.500000060E-2,9.855000496E0
5.051863853E0,-4.950000439E-3,1.050000079E-3,9.838950157E0
5.054364161E0,-2.700000070E-2,3.195000067E-2,9.847950935E0
5.056864697E0,-3.600000218E-2,6.000000052E-3,9.847950935E0
5.059365035E0,-5.100000277E-2,2.505000122E-2,9.834000587E0
5.061865418E0,-3.900000080E-2,2.205000073E-2,9.846000671E0
5.064365727E0,-4.095000029E-2,3.900000080E-2,9.835950851E0
5.066866035E0,-4.800000042E-2,3.900000080E-2,9.847950935E0
5.069366571E0,-4.305000231E-2,3.405000269E-2,9.841050148E0
5.071866881E0,-5.295000225E-2,3.705000132E-2,9.846000671E0
5.074367264E0,-5.100000277E-2,3.705000132E-2,9.847950935E0
5.076867573E0,-4.800000042E-2,4.095000029E-2,9.853050232E0
5.079368072E0,-2.205000073E-2,3.705000132E-2,9.853050232E0
5.081868382E0,-1.695000008E-2,3.195000067E-2,9.853050232E0
5.084368764E0,-1.905000024E-2,4.395000264E-2,9.847950935E0
5.086869303E0,-7.050000131E-3,4.395000264E-2,9.846000671E0
5.089369612E0,-7.050000131E-3,3.405000269E-2,9.850950241E0
5.091869965E0,1.050000079E-3,3.405000269E-2,9.853050232E0
5.094370275E0,7.950000465E-3,2.700000070E-2,9.847950935E0
5.096870811E0,-1.200000010E-2,1.305000018E-2,9.835950851E0
5.099371121E0,-1.905000024E-2,3.000000119E-2,9.855000496E0
5.101871509E0,-1.200000010E-2,2.700000070E-2,9.829050064E0
