"Time (s)","Acceleration x (m/s^2)","Acceleration y (m/s^2)","Acceleration z (m/s^2)"
5.513808000E-3,6.000000052E-3,1.870500147E-1,9.841050148E0
2.801823600E-2,-4.605000094E-2,1.270500124E-1,9.838950157E0
3.051781000E-2,-2.700000070E-2,1.219500080E-1,9.846000671E0
3.301834600E-2,-3.405000269E-2,1.150500029E-1,9.895950317E0
3.551896200E-2,-3.900000080E-2,1.339500099E-1,9.793050766E0
3.801934800E-2,3.000000026E-3,1.459500045E-1,9.760050774E0
4.051989900E-2,-6.300000101E-2,1.410000026E-1,9.910950661E0
4.302028600E-2,-4.905000329E-2,1.510500014E-1,9.883950233E0
4.552089900E-2,-2.205000073E-2,1.699500084E-1,9.673950195E0
4.802143900E-2,-4.950000439E-3,1.770000011E-1,9.871950150E0
5.052183300E-2,-3.195000067E-2,2.029500157E-1,9.874950409E0
5.302237000E-2,-5.595000088E-2,2.080500126E-1,9.801000595E0
5.552298500E-2,3.705000132E-2,1.630500108E-1,9.895950317E0
5.802337200E-2,-3.900000080E-2,1.840500087E-1,9.853050232E0
6.052390300E-2,1.995000057E-2,1.800000072E-1,9.817050934E0
6.302451800E-2,-7.950000465E-3,1.819500029E-1,9.886950493E0
6.552482800E-2,1.050000079E-3,1.530000120E-1,9.844050407E0
6.802544100E-2,1.800000109E-2,1.510500014E-1,9.805050850E0
7.052582800E-2,-3.000000026E-3,1.240500063E-1,9.859950066E0
7.302637000E-2,-7.950000465E-3,1.339500099E-1,9.859950066E0
7.552675600E-2,-2.505000122E-2,1.120500043E-1,9.835950851E0
7.802737000E-2,-1.005000062E-2,9.795000404E-2,9.874950409E0
8.052791000E-2,-2.700000070E-2,9.600000083E-2,9.850950241E0
8.302832500E-2,-1.500000060E-2,8.400000632E-2,9.847950935E0
8.552886100E-2,2.205000073E-2,8.595000207E-2,9.844050407E0
8.802947700E-2,1.305000018E-2,6.900000572E-2,9.834000587E0
9.052986300E-2,1.800000109E-2,7.395000011E-2,9.838950157E0
9.303039500E-2,3.900000080E-2,6.195000187E-2,9.846000671E0
9.553078100E-2,6.495000422E-2,6.195000187E-2,9.835950851E0
9.803139500E-2,7.005000114E-2,8.595000207E-2,9.835950851E0
1.005319350E-1,8.205000311E-2,9.600000083E-2,9.853050232E0
1.030323440E-1,9.405000508E-2,8.100000024E-2,9.826950073E0
1.055328800E-1,1.009500027E-1,6.705000252E-2,9.850950241E0
1.080334960E-1,8.895000070E-2,6.195000187E-2,9.847950935E0
1.105338820E-1,9.195000678E-2,3.299999982E-2,9.832050323E0
1.130344190E-1,1.060500070E-1,2.895000204E-2,9.814950943E0
1.155348290E-1,1.090500057E-1,2.400000021E-2,9.822000504E0
1.180354430E-1,8.505000174E-2,1.950000064E-3,9.838950157E0
1.205359830E-1,9.705000371E-2,1.005000062E-2,9.846000671E0
1.230363680E-1,9.900000691E-2,-6.000000052E-3,9.853050232E0
1.255370090E-1,9.405000508E-2,-1.305000018E-2,9.853050232E0
1.280375500E-1,7.500000298E-2,-2.505000122E-2,9.856050491E0
1.305379340E-1,8.895000070E-2,-4.695000127E-2,9.856050491E0
1.330384710E-1,8.700000495E-2,-3.495000303E-2,9.841050148E0
1.355388760E-1,1.009500027E-1,-2.100000158E-2,9.844050407E0
1.380394900E-1,1.110000089E-1,-2.295000106E-2,9.838950157E0
1.405400300E-1,1.159500033E-1,-2.295000106E-2,9.846000671E0
1.430404150E-1,1.200000048E-1,-2.295000106E-2,9.847950935E0
1.455409510E-1,1.039500013E-1,-6.000000052E-3,9.844050407E0
1.480413380E-1,1.159500033E-1,0.000000000E0,9.856050491E0
1.505419510E-1,1.440000087E-1,0.000000000E0,9.838950157E0
1.530424920E-1,1.369500011E-1,7.050000131E-3,9.841050148E0
1.555428760E-1,1.319999993E-1,4.950000439E-3,9.829050064E0
1.580434180E-1,1.230000034E-1,-4.050000105E-3,9.846000671E0
1.605440330E-1,1.180500090E-1,4.950000439E-3,9.838950157E0
1.630444200E-1,9.900000691E-2,-4.050000105E-3,9.835950851E0
1.655449560E-1,8.895000070E-2,-2.100000158E-2,9.838950157E0
1.680453570E-1,9.195000678E-2,-1.800000109E-2,9.825000763E0
1.705459700E-1,5.805000290E-2,-4.050000105E-3,9.825000763E0
1.730465110E-1,5.595000088E-2,-2.295000106E-2,9.862950325E0
1.755468950E-1,3.195000067E-2,-2.295000106E-2,9.858000755E0
1.780474280E-1,2.700000070E-2,-3.705000132E-2,9.862950325E0
1.805480430E-1,1.005000062E-2,-2.505000122E-2,9.834000587E0
1.830484300E-1,1.050000079E-3,-3.299999982E-2,9.846000671E0
1.855489660E-1,-7.950000465E-3,-1.800000109E-2,9.838950157E0
1.880493530E-1,-2.700000070E-2,-1.605000161E-2,9.841050148E0
1.905499560E-1,-4.950000439E-3,4.950000439E-3,9.850950241E0
1.930504970E-1,1.305000018E-2,-1.050000079E-3,9.853050232E0
1.955508810E-1,6.000000052E-3,-1.305000018E-2,9.858000755E0
1.980514180E-1,3.000000026E-3,7.050000131E-3,9.856050491E0
2.005520230E-1,3.000000119E-2,1.695000008E-2,9.856050491E0
2.030524100E-1,1.300500035E-1,4.995000362E-2,9.834000587E0
2.055529460E-1,5.730000138E-1,2.389500141E-1,9.910950661E0
2.080535620E-1,1.227000117E0,3.810000122E-1,9.789000511E0
2.105539480E-1,6.880500317E-1,3.420000076E-1,9.685950279E0
2.130544850E-1,2.880000174E-1,1.770000011E-1,9.853050232E0
2.155548720E-1,-7.200000435E-2,1.950000064E-3,9.846000671E0
2.180554080E-1,-4.605000094E-2,-7.995000482E-2,9.757050514E0
2.205557950E-1,-5.295000225E-2,-4.695000127E-2,9.889050484E0
2.230564080E-1,8.205000311E-2,-3.299999982E-2,9.963000298E0
2.255569480E-1,7.304999977E-2,-6.795000285E-2,9.825000763E0
2.280573330E-1,2.449500114E-1,-1.120500043E-1,9.870000839E0
2.305578700E-1,3.670500219E-1,-1.830000132E-1,9.883950233E0
2.330584850E-1,3.220500052E-1,-1.090500057E-1,9.784050941E0
2.355588720E-1,3.000000119E-2,-7.995000482E-2,9.796050072E0
2.380594080E-1,-1.080000028E-1,-1.240500063E-1,9.825000763E0
2.405597950E-1,-2.950500250E-1,-1.189500093E-1,9.817050934E0
2.430604080E-1,-2.380500138E-1,-1.039500013E-1,9.868050575E0
2.455609490E-1,-7.005000114E-2,-3.299999982E-2,9.898950577E0
2.480613330E-1,-3.405000269E-2,-4.005000368E-2,9.826950073E0
2.505618700E-1,-1.500000060E-2,-9.495000541E-2,9.847950935E0
2.530624850E-1,2.760000229E-1,-2.190000117E-1,9.916050911E0
2.555628470E-1,3.340500295E-1,-2.050500065E-1,9.801000595E0
2.580633830E-1,7.695000619E-2,-1.020000055E-1,9.786000252E0
2.605639980E-1,-1.080000028E-1,-6.105000153E-2,9.835950851E0
2.630643850E-1,-3.289500177E-1,-8.295000345E-2,9.786000252E0
2.655649270E-1,-5.490000248E-1,-1.519500017E-1,9.826950073E0
2.680653130E-1,-4.170000255E-1,-1.810500026E-1,9.913050652E0
2.705659270E-1,-3.070500195E-1,-1.279500127E-1,9.889050484E0
2.730664670E-1,-3.139500022E-1,-8.805000782E-2,9.862950325E0
2.755668520E-1,-4.990500212E-1,-1.279500127E-1,9.942000389E0
2.780673540E-1,-5.299500227E-1,-1.740000099E-1,9.904050827E0
2.805679700E-1,-3.619500101E-1,-1.690500081E-1,9.814950943E0
2.830683560E-1,-2.209500074E-1,-1.519500017E-1,9.793050766E0
2.855688930E-1,-2.590500116E-1,-1.309500039E-1,9.781050682E0
2.880692750E-1,-3.960000277E-1,-1.429500133E-1,9.793050766E0
2.905698890E-1,-4.270500243E-1,-1.429500133E-1,9.858000755E0
2.930704290E-1,-3.049500287E-1,-1.020000055E-1,9.922950745E0
2.955708140E-1,-9.405000508E-2,-3.705000132E-2,9.886950493E0
2.980713300E-1,-1.489500105E-1,-1.800000109E-2,9.826950073E0
3.005717170E-1,-3.930000067E-1,-5.700000376E-2,9.865050316E0
3.030722530E-1,-4.699500203E-1,-1.240500063E-1,9.874950409E0
3.055728690E-1,-3.049500287E-1,-1.000500023E-1,9.835950851E0
3.080732550E-1,-1.590000093E-1,-5.895000324E-2,9.757050514E0
3.105737730E-1,-2.260500044E-1,-4.905000329E-2,9.789000511E0
3.130741590E-1,-3.910500109E-1,-1.069500074E-1,9.829050064E0
3.155747730E-1,-4.960500300E-1,-1.140000075E-1,9.868050575E0
3.180753130E-1,-3.930000067E-1,-9.000000358E-2,9.907950401E0
3.205756980E-1,-2.539499998E-1,-8.805000782E-2,9.934950829E0
3.230763110E-1,-2.569500208E-1,-1.069500074E-1,9.859950066E0
3.255768520E-1,-3.739500046E-1,-1.789500117E-1,9.846000671E0
3.280772360E-1,-4.480500221E-1,-1.810500026E-1,9.853050232E0
3.305777630E-1,-2.569500208E-1,-1.120500043E-1,9.834000587E0
3.330783780E-1,-3.405000269E-2,-3.299999982E-2,9.793050766E0
3.355787650E-1,-6.300000101E-2,-5.700000376E-2,9.774000168E0
3.380793010E-1,-2.710500062E-1,-1.330500096E-1,9.846000671E0
3.405796690E-1,-2.880000174E-1,-1.549500078E-1,9.883950233E0
3.430802820E-1,-1.180500090E-1,-3.495000303E-2,9.913050652E0
3.455808230E-1,4.905000329E-2,6.705000252E-2,9.883950233E0
3.480812070E-1,4.395000264E-2,4.500000179E-2,9.859950066E0
3.505817440E-1,-1.110000089E-1,-4.695000127E-2,9.802950859E0
3.530823450E-1,-2.089500129E-1,-8.805000782E-2,9.774000168E0
3.555827320E-1,-1.129500046E-1,-3.000000119E-2,9.826950073E0
3.580832680E-1,3.405000269E-2,2.895000204E-2,9.834000587E0
3.605836550E-1,1.005000062E-2,-1.095000096E-2,9.805050850E0
3.630842580E-1,-1.710000038E-1,-9.195000678E-2,9.832050323E0
3.655845680E-1,-2.740500271E-1,-9.195000678E-2,9.910950661E0
3.680851810E-1,-1.200000048E-1,0.000000000E0,9.894000053E0
3.705857200E-1,4.395000264E-2,5.295000225E-2,9.906000137E0
3.730863350E-1,1.995000057E-2,-1.305000018E-2,9.844050407E0
3.755866980E-1,-1.420500129E-1,-1.469999999E-1,9.826950073E0
3.780872340E-1,-1.680000126E-1,-1.450500041E-1,9.814950943E0
3.805876210E-1,-3.900000080E-2,-2.805000171E-2,9.814950943E0
3.830881570E-1,1.300500035E-1,8.595000207E-2,9.814950943E0
3.855887490E-1,1.759500057E-1,6.000000238E-2,9.838950157E0
3.880891350E-1,1.005000062E-2,-1.095000096E-2,9.844050407E0
3.905896720E-1,-9.900000691E-2,-1.050000079E-3,9.886950493E0
3.930900590E-1,1.050000079E-3,9.105000645E-2,9.916050911E0
3.955906430E-1,2.140500098E-1,1.480500102E-1,9.856050491E0
3.980911830E-1,2.260500044E-1,1.080000028E-1,9.790950775E0
4.005915680E-1,7.005000114E-2,1.395000052E-2,9.774000168E0
4.030921050E-1,-4.095000029E-2,2.595000155E-2,9.802950859E0
4.055927100E-1,2.700000070E-2,1.099500060E-1,9.825000763E0
4.080930970E-1,1.849500090E-1,1.319999993E-1,9.853050232E0
4.105936330E-1,1.489500105E-1,4.800000042E-2,9.853050232E0
4.130940200E-1,-2.205000073E-2,-4.500000179E-2,9.870000839E0
4.155946330E-1,-1.300500035E-1,-6.000000052E-3,9.883950233E0
4.180951640E-1,-7.005000114E-2,7.200000435E-2,9.894000053E0
4.205955490E-1,1.060500070E-1,1.170000061E-1,9.858000755E0
4.230960860E-1,2.110500038E-1,2.400000021E-2,9.810000420E0
4.255967010E-1,7.995000482E-2,-8.295000345E-2,9.784050941E0
4.280970930E-1,-6.300000101E-2,-7.800000161E-2,9.808050156E0
4.305976290E-1,1.800000109E-2,3.600000218E-2,9.882000923E0
4.330982440E-1,1.830000132E-1,1.219500080E-1,9.871950150E0
4.355986310E-1,2.710500062E-1,6.000000238E-2,9.841050148E0
4.380991730E-1,1.879500151E-1,-3.000000119E-2,9.835950851E0
4.405995590E-1,4.095000029E-2,1.395000052E-2,9.862950325E0
4.431000960E-1,5.805000290E-2,1.440000087E-1,9.882000923E0
4.456007110E-1,2.470500171E-1,1.720500141E-1,9.853050232E0
4.481010980E-1,3.169500232E-1,5.700000376E-2,9.774000168E0
4.506016250E-1,1.900500059E-1,-4.500000179E-2,9.750000000E0
4.531020120E-1,3.900000080E-2,7.050000131E-3,9.796050072E0
4.556025480E-1,3.195000067E-2,1.319999993E-1,9.868050575E0
4.581031640E-1,1.660500020E-1,1.960500032E-1,9.883950233E0
4.606035210E-1,2.350500077E-1,8.100000024E-2,9.850950241E0
4.631040580E-1,1.230000034E-1,-6.405000389E-2,9.865050316E0
4.656044440E-1,-5.805000290E-2,-6.599999964E-2,9.870000839E0
4.681050580E-1,-4.395000264E-2,6.195000187E-2,9.882000923E0
4.706055930E-1,1.180500090E-1,1.030500084E-1,9.844050407E0
4.731059780E-1,2.280000150E-1,-2.805000171E-2,9.801000595E0
4.756065140E-1,1.830000132E-1,-1.189500093E-1,9.790950775E0
4.781071300E-1,1.050000079E-3,-7.995000482E-2,9.826950073E0
4.806075020E-1,-1.005000062E-2,4.800000042E-2,9.883950233E0
4.831080390E-1,1.420500129E-1,1.080000028E-1,9.889050484E0
4.856086540E-1,2.620500028E-1,3.795000166E-2,9.844050407E0
4.881090410E-1,1.900500059E-1,-4.200000316E-2,9.822000504E0
4.906095670E-1,5.295000225E-2,4.950000439E-3,9.846000671E0
4.931099540E-1,2.205000073E-2,1.270500124E-1,9.853050232E0
4.956105670E-1,1.590000093E-1,1.770000011E-1,9.822000504E0
4.981111080E-1,2.380500138E-1,9.600000083E-2,9.778950691E0
5.006114920E-1,1.420500129E-1,1.950000064E-3,9.769050598E0
5.031120290E-1,-2.205000073E-2,4.095000029E-2,9.844050407E0
5.056126440E-1,-8.895000070E-2,1.530000120E-1,9.895950317E0
5.081130310E-1,3.195000067E-2,1.909500062E-1,9.892050743E0
5.106135670E-1,1.609500051E-1,9.600000083E-2,9.865050316E0
5.131139490E-1,1.090500057E-1,0.000000000E0,9.829050064E0
5.156145620E-1,-9.600000083E-2,3.600000218E-2,9.853050232E0
5.181151030E-1,-1.440000087E-1,8.895000070E-2,9.880050659E0
5.206154870E-1,2.700000070E-2,9.600000083E-2,9.817050934E0
5.231160190E-1,1.609500051E-1,1.005000062E-2,9.774000168E0
5.256166340E-1,1.249500066E-1,-3.495000303E-2,9.790950775E0
5.281170210E-1,-2.205000073E-2,4.305000231E-2,9.886950493E0
5.306175570E-1,-9.405000508E-2,1.530000120E-1,9.927000046E0
5.331179490E-1,4.605000094E-2,1.960500032E-1,9.916050911E0
5.356184850E-1,1.950000077E-1,1.050000042E-1,9.822000504E0
5.381191010E-1,1.759500057E-1,2.895000204E-2,9.805050850E0
5.406194870E-1,1.050000079E-3,1.099500060E-1,9.825000763E0
5.431200240E-1,-7.500000298E-2,2.230500132E-1,9.858000755E0
5.456204340E-1,5.100000277E-2,2.490000129E-1,9.825000763E0
5.481210480E-1,1.990500093E-1,1.770000011E-1,9.766950607E0
5.506215880E-1,1.249500066E-1,1.170000061E-1,9.769050598E0
5.531219730E-1,-7.695000619E-2,1.990500093E-1,9.862950325E0
5.556225190E-1,-1.660500020E-1,2.800500095E-1,9.942000389E0
5.581231350E-1,-4.395000264E-2,2.629500031E-1,9.901050568E0
5.606235210E-1,9.195000678E-2,1.560000032E-1,9.835950851E0
5.631240580E-1,8.895000070E-2,7.395000011E-2,9.810000420E0
5.656244640E-1,-6.000000238E-2,1.219500080E-1,9.825000763E0
5.681250770E-1,-1.440000087E-1,2.110500038E-1,9.862950325E0
5.706256170E-1,-1.995000057E-2,2.110500038E-1,9.847950935E0
5.731260020E-1,1.319999993E-1,9.795000404E-2,9.802950859E0
5.756265380E-1,1.399500072E-1,4.995000362E-2,9.805050850E0
5.781271440E-1,-2.205000073E-2,1.339500099E-1,9.907950401E0
5.806275300E-1,-7.695000619E-2,2.509500086E-1,9.951000214E0
5.831280670E-1,7.005000114E-2,2.610000074E-1,9.889050484E0
5.856284540E-1,2.260500044E-1,1.630500108E-1,9.786000252E0
5.881290720E-1,2.070000172E-1,1.560000032E-1,9.754950523E0
5.906296120E-1,3.900000080E-2,1.680000126E-1,9.805050850E0
5.931299970E-1,-1.050000079E-3,2.560500205E-1,9.853050232E0
5.956305340E-1,1.230000034E-1,2.869500220E-1,9.858000755E0
5.981311440E-1,2.430000156E-1,2.250000089E-1,9.789000511E0
6.006315310E-1,1.990500093E-1,1.800000072E-1,9.813000679E0
6.031320670E-1,5.100000277E-2,2.560500205E-1,9.874950409E0
6.056324540E-1,-6.300000101E-2,2.939999998E-1,9.919950485E0
6.081330670E-1,6.105000153E-2,2.389500141E-1,9.871950150E0
6.106335740E-1,2.639999986E-1,1.390500069E-1,9.802950859E0
6.131339590E-1,2.110500038E-1,1.150500029E-1,9.778950691E0
6.156344960E-1,3.000000119E-2,1.650000066E-1,9.859950066E0
6.181348820E-1,-2.895000204E-2,1.960500032E-1,9.904050827E0
6.206355200E-1,1.489500105E-1,2.010000050E-1,9.844050407E0
6.231360600E-1,2.950500250E-1,1.219500080E-1,9.790950775E0
6.256364450E-1,2.400000095E-1,1.200000048E-1,9.810000420E0
6.281369810E-1,7.995000482E-2,1.819500029E-1,9.930000305E0
6.306375970E-1,2.505000122E-2,2.250000089E-1,9.943950653E0
6.331379830E-1,1.680000126E-1,1.960500032E-1,9.871950150E0
6.356385200E-1,3.409500122E-1,1.510500014E-1,9.753000259E0
6.381389060E-1,2.950500250E-1,1.560000032E-1,9.726000786E0
6.406395100E-1,7.995000482E-2,2.299500108E-1,9.820050240E0
6.431400500E-1,1.305000018E-2,2.539499998E-1,9.894000053E0
6.456404350E-1,1.879500151E-1,1.650000066E-1,9.865050316E0
6.481409710E-1,3.289500177E-1,8.595000207E-2,9.801000595E0
6.506415970E-1,2.550000250E-1,9.105000645E-2,9.820050240E0
6.531419830E-1,-1.305000018E-2,1.510500014E-1,9.925050735E0
6.556425200E-1,-5.100000277E-2,1.680000126E-1,9.942000389E0
6.581431350E-1,1.279500127E-1,4.305000231E-2,9.829050064E0
6.606435220E-1,2.710500062E-1,-7.095000148E-2,9.760050774E0
6.631440480E-1,2.230500132E-1,-1.189500093E-1,9.772050858E0
6.656444350E-1,3.000000026E-3,-7.995000482E-2,9.883950233E0
6.681449710E-1,-6.795000285E-2,-5.205000192E-2,9.918000221E0
6.706455870E-1,8.895000070E-2,-1.450500041E-1,9.883950233E0
6.731459780E-1,2.740500271E-1,-2.070000172E-1,9.802950859E0
6.756465150E-1,1.849500090E-1,-2.050500065E-1,9.801000595E0
6.781469010E-1,-2.505000122E-2,-1.690500081E-1,9.895950317E0
6.806475150E-1,-9.900000691E-2,-1.690500081E-1,9.922950745E0
6.831480550E-1,1.090500057E-1,-2.479500175E-1,9.850950241E0
6.856484540E-1,2.470500171E-1,-2.839500010E-1,9.718950272E0
6.881489900E-1,1.300500035E-1,-2.310000062E-1,9.754950523E0
6.906493770E-1,-9.405000508E-2,-1.469999999E-1,9.865050316E0
6.931499900E-1,-1.630500108E-1,-1.469999999E-1,9.907950401E0
6.956505310E-1,-1.005000062E-2,-2.070000172E-1,9.850950241E0
6.981509150E-1,1.369500011E-1,-2.719500065E-1,9.835950851E0
7.006514520E-1,3.195000067E-2,-2.479500175E-1,9.841050148E0
7.031520670E-1,-2.260500044E-1,-1.909500062E-1,9.877050400E0
7.056524540E-1,-2.980500162E-1,-2.070000172E-1,9.910950661E0
7.081529990E-1,-1.060500070E-1,-2.740500271E-1,9.820050240E0
7.106533860E-1,8.700000495E-2,-3.079500198E-1,9.753000259E0
7.131539990E-1,-2.205000073E-2,-2.839500010E-1,9.778950691E0
7.156545400E-1,-2.899500132E-1,-2.290500104E-1,9.913050652E0
7.181549010E-1,-3.499500155E-1,-2.239500135E-1,9.961050034E0
7.206555150E-1,-1.469999999E-1,-2.770500183E-1,9.892050743E0
7.231560550E-1,1.050000079E-3,-2.650500238E-1,9.817050934E0
7.256564400E-1,-1.060500070E-1,-1.740000099E-1,9.820050240E0
7.281569760E-1,-3.360000253E-1,-8.505000174E-2,9.871950150E0
7.306575820E-1,-4.000500143E-1,-9.495000541E-2,9.882000923E0
7.331579680E-1,-2.110500038E-1,-1.309500039E-1,9.817050934E0
7.356585050E-1,-2.505000122E-2,-1.260000020E-1,9.766950607E0
7.381588910E-1,-1.590000093E-1,0.000000000E0,9.796050072E0
7.406595100E-1,-4.410000145E-1,9.795000404E-2,9.883950233E0
7.431600500E-1,-5.110500455E-1,1.099500060E-1,9.930000305E0
7.456604350E-1,-2.740500271E-1,2.595000155E-2,9.859950066E0
7.481609710E-1,-1.039500013E-1,2.895000204E-2,9.793050766E0
7.506615960E-1,-2.070000172E-1,9.105000645E-2,9.813000679E0
7.531619820E-1,-4.650000334E-1,1.579500139E-1,9.895950317E0
7.556625190E-1,-4.840500355E-1,1.080000028E-1,9.904050827E0
7.581629060E-1,-2.899500132E-1,7.050000131E-3,9.817050934E0
7.606634420E-1,-8.205000311E-2,1.950000064E-3,9.760050774E0
7.631640290E-1,-1.750500053E-1,8.895000070E-2,9.820050240E0
7.656644160E-1,-4.170000255E-1,1.630500108E-1,9.925050735E0
7.681649520E-1,-4.630500078E-1,1.170000061E-1,9.951000214E0
7.706653390E-1,-2.500500083E-1,3.600000218E-2,9.904050827E0
7.731659610E-1,-1.500000060E-2,-4.050000105E-3,9.814950943E0
7.756665020E-1,-1.279500127E-1,1.009500027E-1,9.805050850E0
7.781668870E-1,-3.600000143E-1,1.890000105E-1,9.859950066E0
7.806674230E-1,-3.910500109E-1,1.560000032E-1,9.895950317E0
7.831680810E-1,-1.420500129E-1,9.105000645E-2,9.826950073E0
7.856684680E-1,6.795000285E-2,7.695000619E-2,9.757050514E0
7.881690050E-1,-3.900000080E-2,1.750500053E-1,9.810000420E0
7.906693910E-1,-2.500500083E-1,2.389500141E-1,9.904050827E0
7.931700100E-1,-3.120000064E-1,2.010000050E-1,9.922950745E0
7.956705500E-1,-7.500000298E-2,1.200000048E-1,9.844050407E0
7.981709350E-1,1.469999999E-1,1.030500084E-1,9.777000427E0
8.006714710E-1,1.009500027E-1,1.410000026E-1,9.798000336E0
8.031721050E-1,-1.369500011E-1,1.720500141E-1,9.853050232E0
8.056724920E-1,-2.110500038E-1,1.170000061E-1,9.877050400E0
8.081730290E-1,3.195000067E-2,2.595000155E-2,9.841050148E0
8.106734150E-1,2.190000117E-1,1.005000062E-2,9.813000679E0
8.131740340E-1,1.469999999E-1,1.219500080E-1,9.822000504E0
8.156745740E-1,-8.895000070E-2,1.319999993E-1,9.930000305E0
8.181749590E-1,-1.080000028E-1,6.900000572E-2,9.943950653E0
8.206754950E-1,8.505000174E-2,1.950000064E-3,9.834000587E0
8.231761060E-1,2.950500250E-1,2.400000021E-2,9.781050682E0
8.256764920E-1,2.430000156E-1,8.595000207E-2,9.808050156E0
8.281770290E-1,6.000000052E-3,1.459500045E-1,9.856050491E0
8.306776440E-1,-3.195000067E-2,1.170000061E-1,9.865050316E0
8.331780310E-1,1.710000038E-1,5.505000427E-2,9.825000763E0
8.356785670E-1,3.499500155E-1,1.009500027E-1,9.790950775E0
8.381789540E-1,2.710500062E-1,1.909500062E-1,9.826950073E0
8.406794900E-1,6.105000153E-2,2.080500126E-1,9.916050911E0
8.431798770E-1,1.005000062E-2,1.410000026E-1,9.901050568E0
8.456804900E-1,2.190000117E-1,7.200000435E-2,9.820050240E0
8.481810310E-1,3.840000033E-1,7.695000619E-2,9.754950523E0
8.506814150E-1,3.259500265E-1,1.560000032E-1,9.786000252E0
8.531819520E-1,1.350000054E-1,1.770000011E-1,9.871950150E0
8.556825620E-1,7.500000298E-2,9.300000221E-2,9.901050568E0
8.581829490E-1,2.310000062E-1,1.200000010E-2,9.832050323E0
8.606834850E-1,3.720000088E-1,7.050000131E-3,9.786000252E0
8.631838720E-1,2.980500162E-1,9.300000221E-2,9.865050316E0
8.656844900E-1,1.110000089E-1,1.339500099E-1,9.939000130E0
8.681850310E-1,8.505000174E-2,5.295000225E-2,9.916050911E0
8.706854150E-1,2.550000250E-1,4.950000439E-3,9.817050934E0
8.731859520E-1,4.030500054E-1,4.095000029E-2,9.765000343E0
8.756865620E-1,3.169500232E-1,1.270500124E-1,9.796050072E0
8.781869490E-1,1.420500129E-1,1.770000011E-1,9.871950150E0
8.806874850E-1,9.705000371E-2,1.240500063E-1,9.907950401E0
8.831881010E-1,2.470500171E-1,9.300000221E-2,9.846000671E0
8.856884870E-1,3.769500256E-1,1.240500063E-1,9.805050850E0
8.881890290E-1,3.409500122E-1,1.909500062E-1,9.820050240E0
8.906894150E-1,1.590000093E-1,2.389500141E-1,9.886950493E0
8.931900290E-1,1.110000089E-1,1.720500141E-1,9.877050400E0
8.956905690E-1,2.550000250E-1,1.240500063E-1,9.801000595E0
8.981909630E-1,4.050000310E-1,1.200000048E-1,9.754950523E0
9.006914990E-1,3.190500140E-1,1.699500084E-1,9.810000420E0
9.031918860E-1,1.560000032E-1,1.650000066E-1,9.898950577E0
9.056924990E-1,1.249500066E-1,1.270500124E-1,9.895950317E0
9.081930260E-1,2.620500028E-1,6.495000422E-2,9.846000671E0
9.106934100E-1,3.600000143E-1,1.030500084E-1,9.829050064E0
9.131939470E-1,2.740500271E-1,1.270500124E-1,9.844050407E0
9.156945620E-1,1.230000034E-1,8.100000024E-2,9.919950485E0
9.181949440E-1,1.159500033E-1,4.095000029E-2,9.892050743E0
9.206954800E-1,2.280000150E-1,2.595000155E-2,9.805050850E0
9.231958670E-1,3.169500232E-1,6.000000238E-2,9.772050858E0
9.256964030E-1,2.689500153E-1,1.319999993E-1,9.805050850E0
9.281970330E-1,1.110000089E-1,1.240500063E-1,9.880050659E0
9.306974190E-1,8.895000070E-2,7.395000011E-2,9.889050484E0
9.331979560E-1,1.990500093E-1,5.295000225E-2,9.856050491E0
9.356985710E-1,2.590500116E-1,9.600000083E-2,9.820050240E0
9.381989580E-1,1.710000038E-1,1.579500139E-1,9.858000755E0
9.406994900E-1,6.795000285E-2,1.050000042E-1,9.870000839E0
9.431998770E-1,7.304999977E-2,7.050000131E-3,9.846000671E0
9.457004900E-1,1.759500057E-1,1.395000052E-2,9.798000336E0
9.482010310E-1,2.190000117E-1,5.700000376E-2,9.766950607E0
9.507013960E-1,1.350000054E-1,4.995000362E-2,9.829050064E0
9.532019320E-1,1.995000057E-2,1.395000052E-2,9.895950317E0
9.557025470E-1,-3.000000026E-3,-4.695000127E-2,9.927000046E0
9.582029340E-1,9.405000508E-2,-6.599999964E-2,9.870000839E0
9.607034660E-1,1.729500145E-1,-2.805000171E-2,9.802950859E0
9.632038530E-1,7.500000298E-2,1.200000010E-2,9.834000587E0
9.657044660E-1,-6.000000238E-2,-2.505000122E-2,9.886950493E0
9.682050070E-1,-2.895000204E-2,-7.995000482E-2,9.892050743E0
9.707053820E-1,7.005000114E-2,-1.090500057E-1,9.808050156E0
9.732059180E-1,1.159500033E-1,-4.050000105E-3,9.813000679E0
9.757065330E-1,3.000000119E-2,4.995000362E-2,9.829050064E0
9.782069200E-1,-8.400000632E-2,3.105000220E-2,9.894000053E0
9.807074570E-1,-4.905000329E-2,-2.805000171E-2,9.889050484E0
9.832080670E-1,5.295000225E-2,-6.000000052E-3,9.847950935E0
9.857083770E-1,1.350000054E-1,4.305000231E-2,9.808050156E0
9.882089900E-1,3.405000269E-2,4.500000179E-2,9.822000504E0
9.907093770E-1,-7.695000619E-2,2.895000204E-2,9.868050575E0
9.932100000E-1,-6.000000238E-2,-2.505000122E-2,9.844050407E0
9.957103100E-1,6.795000285E-2,-2.100000158E-2,9.808050156E0
9.982109230E-1,1.279500127E-1,7.050000131E-3,9.778950691E0
1.000711476E0,1.005000062E-2,4.095000029E-2,9.822000504E0
1.003212091E0,-1.080000028E-1,-2.100000158E-2,9.904050827E0
1.005712401E0,-7.995000482E-2,-8.805000782E-2,9.931950569E0
1.008213014E0,2.700000070E-2,-8.295000345E-2,9.862950325E0
1.010713401E0,6.795000285E-2,-9.000000544E-3,9.813000679E0
1.013213942E0,-1.500000060E-2,-1.050000079E-3,9.820050240E0
1.015714329E0,-1.180500090E-1,-5.895000324E-2,9.856050491E0
1.018214942E0,-1.369500011E-1,-8.295000345E-2,9.841050148E0
1.020715483E0,-2.895000204E-2,-3.299999982E-2,9.832050323E0
1.023215867E0,1.500000060E-2,2.400000021E-2,9.835950851E0
1.025716418E0,-6.000000238E-2,2.400000021E-2,9.853050232E0
1.028217033E0,-1.609500051E-1,-1.305000018E-2,9.889050484E0
1.030717420E0,-1.300500035E-1,-1.605000161E-2,9.877050400E0
1.033217956E0,3.405000269E-2,2.595000155E-2,9.829050064E0
1.035718577E0,6.300000101E-2,8.595000207E-2,9.784050941E0
1.038218886E0,-3.195000067E-2,7.200000435E-2,9.810000420E0
1.040719500E0,-1.510500014E-1,-6.000000052E-3,9.826950073E0
1.043219886E0,-9.600000083E-2,-3.705000132E-2,9.868050575E0
1.045720500E0,7.950000465E-3,4.305000231E-2,9.834000587E0
1.048221040E0,4.605000094E-2,1.099500060E-1,9.822000504E0
1.050721425E0,-4.395000264E-2,6.195000187E-2,9.858000755E0
1.053221961E0,-1.609500051E-1,-9.000000544E-3,9.880050659E0
1.055722577E0,-1.680000126E-1,-4.200000316E-2,9.895950317E0
1.058222992E0,-5.100000277E-2,1.905000024E-2,9.862950325E0
1.060723529E0,1.800000109E-2,7.200000435E-2,9.813000679E0
1.063223915E0,-9.195000678E-2,6.195000187E-2,9.802950859E0
1.065724529E0,-2.179500163E-1,1.005000062E-2,9.817050934E0
1.068224838E0,-1.729500145E-1,-4.050000105E-3,9.874950409E0
1.070725452E0,-7.950000465E-3,4.305000231E-2,9.858000755E0
1.073225990E0,3.705000132E-2,1.510500014E-1,9.814950943E0
1.075726606E0,-6.795000285E-2,1.530000120E-1,9.850950241E0
1.078226925E0,-1.540500075E-1,7.905000448E-2,9.871950150E0
1.080727539E0,-1.129500046E-1,6.195000187E-2,9.880050659E0
1.083227925E0,2.505000122E-2,1.339500099E-1,9.841050148E0
1.085728462E0,1.279500127E-1,1.939500123E-1,9.778950691E0
1.088229077E0,6.795000285E-2,1.650000066E-1,9.789000511E0
1.090729468E0,-6.495000422E-2,9.105000645E-2,9.826950073E0
1.093230004E0,-8.400000632E-2,6.495000422E-2,9.877050400E0
1.095730391E0,5.805000290E-2,1.390500069E-1,9.871950150E0
1.098231004E0,1.369500011E-1,1.819500029E-1,9.835950851E0
1.100731554E0,6.300000101E-2,1.360500008E-1,9.832050323E0
1.103231938E0,-8.700000495E-2,6.900000572E-2,9.847950935E0
1.105732475E0,-5.595000088E-2,2.400000021E-2,9.874950409E0
1.108233090E0,3.900000080E-2,8.595000207E-2,9.838950157E0
1.110733477E0,1.180500090E-1,1.219500080E-1,9.820050240E0
1.113234013E0,6.495000422E-2,6.495000422E-2,9.814950943E0
1.115734400E0,-6.300000101E-2,-9.000000544E-3,9.844050407E0
1.118235013E0,-7.995000482E-2,4.095000029E-2,9.868050575E0
1.120735554E0,4.095000029E-2,1.270500124E-1,9.877050400E0
1.123235938E0,1.900500059E-1,1.440000087E-1,9.871950150E0
1.125736475E0,1.519500017E-1,9.600000083E-2,9.835950851E0
1.128237090E0,3.000000026E-3,1.005000062E-2,9.834000587E0
1.130737477E0,-3.705000132E-2,1.200000010E-2,9.853050232E0
1.133238032E0,9.900000691E-2,9.300000221E-2,9.850950241E0
1.135738648E0,2.329500169E-1,1.360500008E-1,9.813000679E0
1.138239034E0,1.920000017E-1,6.705000252E-2,9.798000336E0
1.140739571E0,6.105000153E-2,-3.495000303E-2,9.832050323E0
1.143239949E0,1.050000079E-3,-1.800000109E-2,9.868050575E0
1.145740562E0,8.505000174E-2,6.900000572E-2,9.880050659E0
1.148241102E0,1.849500090E-1,8.400000632E-2,9.850950241E0
1.150741487E0,1.399500072E-1,-1.095000096E-2,9.817050934E0
1.153242042E0,-3.000000026E-3,-1.189500093E-1,9.832050323E0
1.155742429E0,-7.200000435E-2,-8.805000782E-2,9.859950066E0
1.158242966E0,3.405000269E-2,1.200000010E-2,9.874950409E0
1.160743581E0,1.489500105E-1,5.295000225E-2,9.846000671E0
1.163243953E0,1.110000089E-1,-3.495000303E-2,9.825000763E0
1.165744489E0,-3.900000080E-2,-1.090500057E-1,9.850950241E0
1.168244876E0,-1.350000054E-1,-9.000000358E-2,9.886950493E0
1.170745489E0,-4.950000439E-3,1.200000010E-2,9.894000053E0
1.173246026E0,1.350000054E-1,7.395000011E-2,9.871950150E0
1.175746410E0,1.540500075E-1,-1.050000079E-3,9.813000679E0
1.178246947E0,3.405000269E-2,-6.599999964E-2,9.822000504E0
1.180747562E0,-5.295000225E-2,-5.895000324E-2,9.829050064E0
1.183247934E0,1.995000057E-2,4.500000179E-2,9.844050407E0
1.185748470E0,1.900500059E-1,7.695000619E-2,9.808050156E0
1.188249085E0,1.969500035E-1,1.695000008E-2,9.813000679E0
1.190749472E0,5.100000277E-2,-4.500000179E-2,9.832050323E0
1.193250009E0,-7.200000435E-2,-1.605000161E-2,9.880050659E0
1.195750390E0,-7.950000465E-3,4.500000179E-2,9.894000053E0
1.198251004E0,1.319999993E-1,7.695000619E-2,9.853050232E0
1.200751544E0,1.279500127E-1,-6.000000052E-3,9.784050941E0
1.203251929E0,-6.000000238E-2,-9.495000541E-2,9.808050156E0
1.205752465E0,-1.560000032E-1,-6.795000285E-2,9.856050491E0
1.208253081E0,-7.005000114E-2,2.400000021E-2,9.892050743E0
1.210753467E0,7.695000619E-2,5.295000225E-2,9.846000671E0
1.213254004E0,1.060500070E-1,-1.050000079E-3,9.829050064E0
1.215754372E0,-6.495000422E-2,-7.605000585E-2,9.841050148E0
1.218254986E0,-1.729500145E-1,-1.800000109E-2,9.895950317E0
1.220755295E0,-7.500000298E-2,6.705000252E-2,9.889050484E0
1.223255909E0,1.230000034E-1,6.000000238E-2,9.835950851E0
1.225756447E0,1.660500020E-1,-1.605000161E-2,9.808050156E0
1.228257034E0,4.605000094E-2,-6.405000389E-2,9.810000420E0
1.230757343E0,-5.805000290E-2,-1.095000096E-2,9.870000839E0
1.233257957E0,3.000000026E-3,7.695000619E-2,9.859950066E0
1.235758343E0,1.230000034E-1,9.105000645E-2,9.834000587E0
1.238258861E0,1.800000072E-1,-4.050000105E-3,9.796050072E0
1.240759476E0,1.800000109E-2,-6.405000389E-2,9.832050323E0
1.243259863E0,-1.060500070E-1,-3.495000303E-2,9.892050743E0
1.245760399E0,-6.000000238E-2,8.100000024E-2,9.904050827E0
1.248260786E0,7.995000482E-2,6.000000238E-2,9.822000504E0
1.250761380E0,1.200000048E-1,-4.695000127E-2,9.778950691E0
1.253261921E0,-4.905000329E-2,-1.120500043E-1,9.777000427E0
1.255762305E0,-1.969500035E-1,-7.605000585E-2,9.858000755E0
1.258262842E0,-1.660500020E-1,0.000000000E0,9.916050911E0
1.260763461E0,2.205000073E-2,0.000000000E0,9.870000839E0
1.263263848E0,7.695000619E-2,-5.895000324E-2,9.826950073E0
1.265764384E0,-3.705000132E-2,-1.090500057E-1,9.826950073E0
1.268264771E0,-1.830000132E-1,-5.205000192E-2,9.882000923E0
1.270765389E0,-1.350000054E-1,1.695000008E-2,9.871950150E0
1.273265930E0,2.205000073E-2,4.095000029E-2,9.814950943E0
1.275766314E0,9.900000691E-2,-5.205000192E-2,9.781050682E0
1.278266851E0,-2.205000073E-2,-8.295000345E-2,9.805050850E0
1.280767466E0,-1.249500066E-1,-5.400000140E-2,9.877050400E0
1.283267853E0,-8.700000495E-2,5.505000427E-2,9.886950493E0
1.285768389E0,5.100000277E-2,5.295000225E-2,9.858000755E0
1.288269005E0,9.705000371E-2,-9.000000544E-3,9.808050156E0
1.290769391E0,-4.905000329E-2,-8.505000174E-2,9.835950851E0
1.293269928E0,-1.800000072E-1,-6.599999964E-2,9.870000839E0
1.295770314E0,-1.540500075E-1,-3.000000119E-2,9.883950233E0
1.298270851E0,-1.305000018E-2,-4.050000105E-3,9.850950241E0
1.300771466E0,1.305000018E-2,-9.000000358E-2,9.778950691E0
1.303271839E0,-1.009500027E-1,-1.159500033E-1,9.805050850E0
1.305772375E0,-2.639999986E-1,-6.795000285E-2,9.856050491E0
1.308272762E0,-2.380500138E-1,-9.000000544E-3,9.930000305E0
1.310773375E0,-9.600000083E-2,-2.805000171E-2,9.871950150E0
1.313273935E0,-1.995000057E-2,-8.505000174E-2,9.817050934E0
1.315774319E0,-1.230000034E-1,-7.800000161E-2,9.844050407E0
1.318274856E0,-2.140500098E-1,-2.295000106E-2,9.883950233E0
1.320775243E0,-1.590000093E-1,3.600000218E-2,9.862950325E0
1.323275856E0,3.000000026E-3,3.795000166E-2,9.805050850E0
1.325776396E0,4.095000029E-2,-6.000000052E-3,9.777000427E0
1.328276781E0,-7.995000482E-2,-1.305000018E-2,9.825000763E0
1.330777318E0,-1.900500059E-1,4.305000231E-2,9.889050484E0
1.333277933E0,-1.489500105E-1,8.100000024E-2,9.910950661E0
1.335778339E0,-1.005000062E-2,9.300000221E-2,9.859950066E0
1.338278875E0,4.605000094E-2,3.299999982E-2,9.774000168E0
1.340779490E0,-8.895000070E-2,3.299999982E-2,9.814950943E0
1.343279877E0,-2.520000041E-1,7.395000011E-2,9.856050491E0
1.345780427E0,-2.110500038E-1,1.080000028E-1,9.904050827E0
1.348280814E0,-7.200000435E-2,6.900000572E-2,9.829050064E0
1.350781351E0,-3.705000132E-2,1.005000062E-2,9.798000336E0
1.353281966E0,-1.750500053E-1,3.795000166E-2,9.822000504E0
1.355782368E0,-2.880000174E-1,1.009500027E-1,9.889050484E0
1.358282904E0,-2.400000095E-1,1.080000028E-1,9.916050911E0
1.360783519E0,-9.405000508E-2,8.100000024E-2,9.844050407E0
1.363283906E0,-3.405000269E-2,1.695000008E-2,9.801000595E0
1.365784443E0,-1.279500127E-1,1.695000008E-2,9.822000504E0
1.368284829E0,-1.969500035E-1,7.200000435E-2,9.892050743E0
1.370785443E0,-1.319999993E-1,1.170000061E-1,9.877050400E0
1.373285983E0,4.905000329E-2,1.099500060E-1,9.817050934E0
1.375786368E0,1.090500057E-1,6.705000252E-2,9.757050514E0
1.378286889E0,-7.950000465E-3,7.695000619E-2,9.817050934E0
1.380787276E0,-1.350000054E-1,1.050000042E-1,9.895950317E0
1.383287889E0,-4.095000029E-2,1.390500069E-1,9.925050735E0
1.385788430E0,8.895000070E-2,9.300000221E-2,9.825000763E0
1.388288814E0,9.405000508E-2,6.000000238E-2,9.778950691E0
1.390789351E0,-2.895000204E-2,7.695000619E-2,9.817050934E0
1.393289966E0,-1.540500075E-1,1.030500084E-1,9.846000671E0
1.395790353E0,-1.009500027E-1,8.595000207E-2,9.880050659E0
1.398290918E0,3.000000026E-3,3.105000220E-2,9.846000671E0
1.400791305E0,1.800000109E-2,-1.605000161E-2,9.813000679E0
1.403291918E0,-8.895000070E-2,-9.000000544E-3,9.832050323E0
1.405792459E0,-2.179500163E-1,1.395000052E-2,9.910950661E0
1.408292848E0,-1.390500069E-1,7.050000131E-3,9.916050911E0
1.410793385E0,4.905000329E-2,-4.695000127E-2,9.838950157E0
1.413294000E0,6.300000101E-2,-5.700000376E-2,9.778950691E0
1.415794387E0,-7.695000619E-2,-3.495000303E-2,9.826950073E0
1.418294951E0,-1.609500051E-1,7.050000131E-3,9.883950233E0
1.420795338E0,-4.605000094E-2,-3.705000132E-2,9.874950409E0
1.423295951E0,9.900000691E-2,-6.795000285E-2,9.825000763E0
1.425796492E0,8.700000495E-2,-5.400000140E-2,9.793050766E0
1.428296871E0,-1.500000060E-2,1.695000008E-2,9.825000763E0
1.430797408E0,-1.249500066E-1,5.700000376E-2,9.894000053E0
1.433297794E0,-7.005000114E-2,2.400000021E-2,9.907950401E0
1.435798408E0,7.500000298E-2,-2.505000122E-2,9.825000763E0
1.438298948E0,9.900000691E-2,-2.505000122E-2,9.766950607E0
1.440799319E0,-6.495000422E-2,1.200000010E-2,9.820050240E0
1.443299932E0,-1.920000017E-1,8.100000024E-2,9.886950493E0
1.445800473E0,-1.180500090E-1,3.795000166E-2,9.895950317E0
1.448300857E0,1.995000057E-2,-1.305000018E-2,9.841050148E0
1.450801384E0,1.305000018E-2,-3.000000119E-2,9.810000420E0
1.453301999E0,-1.440000087E-1,4.305000231E-2,9.856050491E0
1.455802386E0,-2.449500114E-1,4.305000231E-2,9.916050911E0
1.458302922E0,-1.249500066E-1,1.695000008E-2,9.886950493E0
1.460803314E0,3.405000269E-2,-3.299999982E-2,9.829050064E0
1.463303850E0,7.304999977E-2,-1.605000161E-2,9.777000427E0
1.465804466E0,-4.095000029E-2,5.505000427E-2,9.810000420E0
1.468304852E0,-1.420500129E-1,9.300000221E-2,9.871950150E0
1.470805360E0,-5.100000277E-2,6.195000187E-2,9.901050568E0
1.473305746E0,1.200000048E-1,1.695000008E-2,9.841050148E0
1.475806360E0,1.609500051E-1,2.205000073E-2,9.784050941E0
1.478306900E0,1.500000060E-2,8.895000070E-2,9.826950073E0
1.480807270E0,-9.405000508E-2,1.270500124E-1,9.882000923E0
1.483307806E0,1.305000018E-2,9.300000221E-2,9.880050659E0
1.485808422E0,1.440000087E-1,1.395000052E-2,9.805050850E0
1.488308808E0,1.489500105E-1,-4.050000105E-3,9.772050858E0
1.490809345E0,6.000000052E-3,4.500000179E-2,9.790950775E0
1.493309960E0,-1.039500013E-1,4.500000179E-2,9.868050575E0
1.495810347E0,-3.705000132E-2,0.000000000E0,9.894000053E0
1.498310883E0,8.505000174E-2,-7.800000161E-2,9.847950935E0
1.500811270E0,1.300500035E-1,-5.205000192E-2,9.808050156E0
1.503311898E0,1.050000079E-3,-2.805000171E-2,9.844050407E0
1.505812439E0,-9.900000691E-2,-1.800000109E-2,9.895950317E0
1.508312823E0,-2.505000122E-2,-7.095000148E-2,9.892050743E0
1.510813360E0,1.399500072E-1,-1.429500133E-1,9.802950859E0
1.513313742E0,1.800000072E-1,-1.120500043E-1,9.790950775E0
1.515814355E0,6.495000422E-2,-2.805000171E-2,9.834000587E0
1.518314895E0,-3.000000026E-3,0.000000000E0,9.894000053E0
1.520815280E0,7.695000619E-2,-4.200000316E-2,9.877050400E0
1.523315816E0,2.190000117E-1,-7.304999977E-2,9.826950073E0
1.525816432E0,2.070000172E-1,-4.500000179E-2,9.801000595E0
1.528316819E0,1.090500057E-1,3.600000218E-2,9.832050323E0
1.530817355E0,-1.305000018E-2,3.795000166E-2,9.868050575E0
1.533317742E0,6.105000153E-2,-6.000000052E-3,9.868050575E0
1.535818355E0,1.680000126E-1,-5.205000192E-2,9.790950775E0
1.538318895E0,1.800000072E-1,-6.000000052E-3,9.798000336E0
1.540819280E0,1.305000018E-2,7.395000011E-2,9.826950073E0
1.543319817E0,-1.300500035E-1,7.200000435E-2,9.906000137E0
1.545820432E0,-7.500000298E-2,-1.605000161E-2,9.882000923E0
1.548320819E0,5.805000290E-2,-9.000000358E-2,9.841050148E0
1.550821355E0,6.105000153E-2,-4.695000127E-2,9.814950943E0
1.553321742E0,-5.595000088E-2,3.299999982E-2,9.846000671E0
1.555822369E0,-1.510500014E-1,5.505000427E-2,9.865050316E0
1.558322910E0,-8.700000495E-2,-1.050000079E-3,9.858000755E0
1.560823294E0,5.100000277E-2,-5.895000324E-2,9.814950943E0
1.563323831E0,8.700000495E-2,-2.505000122E-2,9.802950859E0
1.565824432E0,1.995000057E-2,7.200000435E-2,9.829050064E0
1.568324819E0,-6.795000285E-2,9.795000404E-2,9.901050568E0
1.570825355E0,1.500000060E-2,6.495000422E-2,9.883950233E0
1.573325742E0,1.300500035E-1,4.095000029E-2,9.841050148E0
1.575826278E0,1.900500059E-1,8.100000024E-2,9.802950859E0
1.578326894E0,5.100000277E-2,1.530000120E-1,9.835950851E0
1.580827280E0,-3.405000269E-2,1.770000011E-1,9.859950066E0
1.583327817E0,7.950000465E-3,1.099500060E-1,9.853050232E0
1.585828198E0,8.205000311E-2,4.500000179E-2,9.822000504E0
1.588328812E0,1.110000089E-1,1.120500043E-1,9.801000595E0
1.590829352E0,1.800000109E-2,1.680000126E-1,9.838950157E0
1.593329966E0,-5.595000088E-2,1.840500087E-1,9.871950150E0
1.595830342E0,-5.595000088E-2,1.200000048E-1,9.877050400E0
1.598330879E0,4.905000329E-2,6.195000187E-2,9.846000671E0
1.600831265E0,8.505000174E-2,5.295000225E-2,9.805050850E0
1.603331879E0,-3.000000026E-3,1.240500063E-1,9.850950241E0
1.605832188E0,-5.595000088E-2,1.099500060E-1,9.880050659E0
1.608332831E0,-7.950000465E-3,7.200000435E-2,9.844050407E0
1.610833369E0,1.279500127E-1,3.795000166E-2,9.801000595E0
1.613333985E0,1.440000087E-1,6.900000572E-2,9.820050240E0
1.615834294E0,7.500000298E-2,1.200000048E-1,9.856050491E0
1.618334923E0,1.500000060E-2,1.099500060E-1,9.894000053E0
1.620835309E0,5.595000088E-2,7.905000448E-2,9.853050232E0
1.623335846E0,1.489500105E-1,6.195000187E-2,9.820050240E0
1.625836232E0,1.759500057E-1,1.240500063E-1,9.802950859E0
1.628336832E0,1.369500011E-1,1.800000072E-1,9.810000420E0
1.630837372E0,5.805000290E-2,1.699500084E-1,9.846000671E0
1.633337757E0,7.695000619E-2,1.150500029E-1,9.865050316E0
1.635838293E0,1.060500070E-1,9.600000083E-2,9.825000763E0
1.638338933E0,1.090500057E-1,1.319999993E-1,9.817050934E0
1.640839319E0,1.500000060E-2,1.630500108E-1,9.841050148E0
1.643339856E0,-3.900000080E-2,1.720500141E-1,9.883950233E0
1.645840242E0,2.205000073E-2,1.150500029E-1,9.856050491E0
1.648340856E0,6.300000101E-2,9.105000645E-2,9.798000336E0
1.650841381E0,7.695000619E-2,1.050000042E-1,9.825000763E0
1.653341766E0,3.000000026E-3,1.360500008E-1,9.865050316E0
1.655842379E0,-2.505000122E-2,1.319999993E-1,9.871950150E0
1.658342689E0,1.995000057E-2,8.100000024E-2,9.862950325E0
1.660843288E0,7.695000619E-2,8.895000070E-2,9.834000587E0
1.663343827E0,1.300500035E-1,1.459500045E-1,9.834000587E0
1.665844442E0,7.995000482E-2,1.890000105E-1,9.856050491E0
1.668344752E0,4.395000264E-2,1.720500141E-1,9.901050568E0
1.670845346E0,7.500000298E-2,1.099500060E-1,9.880050659E0
1.673345733E0,1.350000054E-1,1.009500027E-1,9.817050934E0
1.675846346E0,1.230000034E-1,1.440000087E-1,9.810000420E0
1.678346887E0,4.905000329E-2,1.909500062E-1,9.825000763E0
1.680847271E0,3.705000132E-2,1.960500032E-1,9.871950150E0
1.683347803E0,4.095000029E-2,1.410000026E-1,9.865050316E0
1.685848190E0,6.795000285E-2,1.080000028E-1,9.813000679E0
1.688348726E0,3.405000269E-2,1.030500084E-1,9.829050064E0
1.690849341E0,-1.305000018E-2,1.200000048E-1,9.856050491E0
1.693349718E0,-6.000000238E-2,8.595000207E-2,9.870000839E0
1.695850254E0,-5.595000088E-2,3.299999982E-2,9.880050659E0
1.698350641E0,3.405000269E-2,-1.050000079E-3,9.820050240E0
1.700851254E0,3.195000067E-2,2.205000073E-2,9.817050934E0
1.703351786E0,-1.050000079E-3,2.595000155E-2,9.841050148E0
1.705852171E0,-2.205000073E-2,1.395000052E-2,9.883950233E0
1.708352784E0,3.000000026E-3,-4.695000127E-2,9.870000839E0
1.710853324E0,6.105000153E-2,-5.700000376E-2,9.834000587E0
1.713353709E0,4.905000329E-2,-2.805000171E-2,9.832050323E0
1.715854245E0,3.900000080E-2,-4.050000105E-3,9.853050232E0
1.718354861E0,5.595000088E-2,-2.100000158E-2,9.853050232E0
1.720855248E0,7.500000298E-2,-4.200000316E-2,9.853050232E0
1.723355784E0,1.110000089E-1,-4.200000316E-2,9.829050064E0
1.725856180E0,7.995000482E-2,0.000000000E0,9.813000679E0
1.728356793E0,1.800000109E-2,7.050000131E-3,9.846000671E0
1.730857333E0,-4.950000439E-3,0.000000000E0,9.847950935E0
1.733357718E0,1.995000057E-2,-1.305000018E-2,9.856050491E0
1.735858255E0,7.995000482E-2,1.950000064E-3,9.841050148E0
1.738358865E0,6.495000422E-2,7.050000131E-3,9.826950073E0
1.740859252E0,-2.205000073E-2,-4.050000105E-3,9.847950935E0
1.743359788E0,-5.295000225E-2,-4.905000329E-2,9.858000755E0
1.745860175E0,1.995000057E-2,-9.195000678E-2,9.829050064E0
1.748360726E0,5.295000225E-2,-9.195000678E-2,9.810000420E0
1.750861342E0,5.100000277E-2,-5.700000376E-2,9.841050148E0
1.753361728E0,2.205000073E-2,-3.299999982E-2,9.862950325E0
1.755862342E0,4.395000264E-2,-8.295000345E-2,9.883950233E0
1.758362656E0,6.300000101E-2,-1.260000020E-1,9.853050232E0
1.760863270E0,1.180500090E-1,-9.000000358E-2,9.865050316E0
1.763363808E0,1.369500011E-1,-4.695000127E-2,9.838950157E0
1.765864423E0,8.505000174E-2,-1.095000096E-2,9.841050148E0
1.768364733E0,5.805000290E-2,-4.200000316E-2,9.853050232E0
1.770865366E0,1.420500129E-1,-5.400000140E-2,9.850950241E0
1.773365752E0,2.280000150E-1,-9.000000544E-3,9.817050934E0
1.775866289E0,1.849500090E-1,4.305000231E-2,9.813000679E0
1.778366675E0,8.205000311E-2,2.895000204E-2,9.862950325E0
1.780867274E0,3.900000080E-2,-1.095000096E-2,9.850950241E0
1.783367814E0,6.795000285E-2,-1.800000109E-2,9.865050316E0
1.785868199E0,1.440000087E-1,0.000000000E0,9.832050323E0
1.788368735E0,1.279500127E-1,3.299999982E-2,9.838950157E0
1.790869351E0,6.300000101E-2,1.905000024E-2,9.832050323E0
1.793369737E0,-1.050000079E-3,-6.000000052E-3,9.844050407E0
1.795870274E0,3.195000067E-2,-3.299999982E-2,9.844050407E0
1.798370660E0,9.405000508E-2,-2.100000158E-2,9.841050148E0
1.800871274E0,1.180500090E-1,-4.050000105E-3,9.844050407E0
1.803371814E0,3.900000080E-2,-2.100000158E-2,9.834000587E0
1.805872199E0,1.995000057E-2,-2.100000158E-2,9.874950409E0
1.808372812E0,8.505000174E-2,-3.000000119E-2,9.880050659E0
1.810873122E0,1.759500057E-1,4.305000231E-2,9.856050491E0
1.813373735E0,1.560000032E-1,6.495000422E-2,9.829050064E0
1.815874274E0,7.005000114E-2,4.500000179E-2,9.834000587E0
1.818374889E0,2.205000073E-2,2.595000155E-2,9.846000671E0
1.820875199E0,9.195000678E-2,4.095000029E-2,9.841050148E0
1.823375841E0,1.780500114E-1,1.050000042E-1,9.841050148E0
1.825876228E0,1.759500057E-1,1.319999993E-1,9.825000763E0
1.828376764E0,8.205000311E-2,1.150500029E-1,9.841050148E0
1.830877151E0,3.000000026E-3,8.100000024E-2,9.817050934E0
1.833377793E0,1.005000062E-2,8.100000024E-2,9.850950241E0
1.835878334E0,1.039500013E-1,1.050000042E-1,9.868050575E0
1.838378947E0,1.180500090E-1,1.099500060E-1,9.826950073E0
1.840879257E0,4.395000264E-2,6.900000572E-2,9.838950157E0
1.843379870E0,-2.700000070E-2,1.395000052E-2,9.834000587E0
1.845880247E0,2.505000122E-2,1.695000008E-2,9.859950066E0
1.848380860E0,1.110000089E-1,5.295000225E-2,9.850950241E0
1.850881401E0,1.200000048E-1,6.495000422E-2,9.847950935E0
1.853381785E0,6.105000153E-2,0.000000000E0,9.853050232E0
1.855882308E0,-7.950000465E-3,-4.005000368E-2,9.858000755E0
1.858382694E0,5.595000088E-2,-1.800000109E-2,9.865050316E0
1.860883308E0,1.540500075E-1,5.295000225E-2,9.847950935E0
1.863383848E0,1.990500093E-1,6.495000422E-2,9.822000504E0
1.865884233E0,1.039500013E-1,4.095000029E-2,9.834000587E0
1.868384769E0,-4.950000439E-3,1.395000052E-2,9.813000679E0
1.870885385E0,2.205000073E-2,1.950000064E-3,9.841050148E0
1.873385771E0,1.420500129E-1,6.195000187E-2,9.858000755E0
1.875886308E0,1.590000093E-1,7.695000619E-2,9.850950241E0
1.878386703E0,1.060500070E-1,6.705000252E-2,9.853050232E0
1.880887317E0,-1.005000062E-2,1.200000010E-2,9.844050407E0
1.883387627E0,-7.950000465E-3,3.299999982E-2,9.850950241E0
1.885888240E0,9.405000508E-2,6.900000572E-2,9.841050148E0
1.888388807E0,1.319999993E-1,4.995000362E-2,9.835950851E0
1.890889423E0,6.300000101E-2,-1.800000109E-2,9.841050148E0
1.893389733E0,-4.605000094E-2,-3.495000303E-2,9.856050491E0
1.895890346E0,-3.000000026E-3,-4.500000179E-2,9.856050491E0
1.898390733E0,1.129500046E-1,0.000000000E0,9.847950935E0
1.900891346E0,1.729500145E-1,-1.050000079E-3,9.835950851E0
1.903391886E0,7.500000298E-2,-3.000000119E-2,9.850950241E0
1.905892271E0,-2.700000070E-2,-6.599999964E-2,9.832050323E0
1.908392889E0,6.000000052E-3,-4.500000179E-2,9.856050491E0
1.910893430E0,1.319999993E-1,-1.800000109E-2,9.850950241E0
1.913393815E0,2.089500129E-1,2.895000204E-2,9.832050323E0
1.915894351E0,1.469999999E-1,-6.000000052E-3,9.825000763E0
1.918394738E0,1.005000062E-2,-1.095000096E-2,9.829050064E0
1.920895336E0,-7.950000465E-3,3.105000220E-2,9.858000755E0
1.923395876E0,1.090500057E-1,7.395000011E-2,9.834000587E0
1.925896261E0,1.560000032E-1,8.595000207E-2,9.846000671E0
1.928396794E0,7.695000619E-2,1.395000052E-2,9.835950851E0
1.930897409E0,-3.900000080E-2,0.000000000E0,9.838950157E0
1.933397796E0,-3.705000132E-2,4.095000029E-2,9.835950851E0
1.935898332E0,7.304999977E-2,8.595000207E-2,9.844050407E0
1.938398719E0,1.200000048E-1,6.900000572E-2,9.844050407E0
1.940899221E0,5.295000225E-2,7.050000131E-3,9.832050323E0
1.943399836E0,-5.100000277E-2,-2.505000122E-2,9.846000671E0
1.945900223E0,-5.100000277E-2,-1.050000079E-3,9.874950409E0
1.948400760E0,8.205000311E-2,6.000000238E-2,9.880050659E0
1.950901370E0,1.609500051E-1,6.195000187E-2,9.865050316E0
1.953401757E0,1.090500057E-1,2.895000204E-2,9.829050064E0
1.955902293E0,-2.505000122E-2,-1.050000079E-3,9.844050407E0
1.958402680E0,-3.900000080E-2,3.600000218E-2,9.850950241E0
1.960903293E0,7.695000619E-2,1.120500043E-1,9.859950066E0
1.963403834E0,1.440000087E-1,1.080000028E-1,9.846000671E0
1.965904218E0,1.039500013E-1,9.105000645E-2,9.832050323E0
1.968404755E0,-3.000000026E-3,8.100000024E-2,9.825000763E0
1.970905141E0,-2.895000204E-2,1.290000081E-1,9.822000504E0
1.973405769E0,6.105000153E-2,1.960500032E-1,9.847950935E0
1.975906309E0,1.350000054E-1,1.840500087E-1,9.846000671E0
1.978406694E0,7.995000482E-2,1.200000048E-1,9.817050934E0
1.980907230E0,-3.405000269E-2,8.895000070E-2,9.817050934E0
1.983407837E0,-4.905000329E-2,1.030500084E-1,9.832050323E0
1.985908223E0,7.695000619E-2,1.459500045E-1,9.850950241E0
1.988408760E0,1.469999999E-1,1.560000032E-1,9.826950073E0
1.990909375E0,9.195000678E-2,7.395000011E-2,9.835950851E0
1.993409757E0,-2.205000073E-2,2.595000155E-2,9.856050491E0
1.995910293E0,-2.505000122E-2,4.095000029E-2,9.871950150E0
1.998410680E0,8.895000070E-2,6.495000422E-2,9.865050316E0
2.000911216E0,1.780500114E-1,7.395000011E-2,9.847950935E0
2.003411832E0,1.319999993E-1,1.200000010E-2,9.838950157E0
2.005912194E0,3.705000132E-2,7.050000131E-3,9.832050323E0
2.008412731E0,6.000000052E-3,2.895000204E-2,9.847950935E0
2.010913117E0,9.195000678E-2,6.900000572E-2,9.834000587E0
2.013413731E0,1.609500051E-1,5.505000427E-2,9.847950935E0
2.015914285E0,1.090500057E-1,4.800000042E-2,9.850950241E0
2.018414670E0,3.000000026E-3,4.500000179E-2,9.858000755E0
2.020915206E0,-1.995000057E-2,8.100000024E-2,9.874950409E0
2.023415822E0,9.405000508E-2,1.009500027E-1,9.841050148E0
2.025916223E0,1.420500129E-1,7.905000448E-2,9.814950943E0
2.028416760E0,7.500000298E-2,2.205000073E-2,9.835950851E0
2.030917146E0,-3.405000269E-2,1.905000024E-2,9.846000671E0
2.033417760E0,-5.595000088E-2,6.195000187E-2,9.846000671E0
2.035918319E0,1.005000062E-2,6.000000238E-2,9.877050400E0
2.038418704E0,9.705000371E-2,3.299999982E-2,9.832050323E0
2.040919317E0,6.105000153E-2,-1.095000096E-2,9.858000755E0
2.043419858E0,-4.095000029E-2,1.005000062E-2,9.874950409E0
2.045920232E0,-7.995000482E-2,4.800000042E-2,9.862950325E0
2.048420769E0,-1.500000060E-2,6.900000572E-2,9.868050575E0
2.050921384E0,6.495000422E-2,4.095000029E-2,9.829050064E0
2.053421694E0,3.195000067E-2,2.400000021E-2,9.802950859E0
2.055922307E0,-7.500000298E-2,2.595000155E-2,9.834000587E0
2.058422675E0,-6.795000285E-2,8.595000207E-2,9.865050316E0
2.060923211E0,-1.050000079E-3,1.440000087E-1,9.856050491E0
2.063423598E0,2.700000070E-2,1.319999993E-1,9.825000763E0
2.065924211E0,-2.895000204E-2,9.795000404E-2,9.834000587E0
2.068424752E0,-9.195000678E-2,1.050000042E-1,9.850950241E0
2.070925136E0,-1.319999993E-1,1.459500045E-1,9.844050407E0
2.073425750E0,-5.100000277E-2,1.720500141E-1,9.853050232E0
2.075926290E0,-4.950000439E-3,1.650000066E-1,9.847950935E0
2.078426675E0,-3.900000080E-2,1.339500099E-1,9.832050323E0
2.080927221E0,-1.350000054E-1,1.219500080E-1,9.834000587E0
2.083427608E0,-1.560000032E-1,1.339500099E-1,9.858000755E0
2.085928221E0,-7.695000619E-2,1.270500124E-1,9.862950325E0
2.088428762E0,-1.500000060E-2,1.170000061E-1,9.838950157E0
2.090929132E0,-8.205000311E-2,7.905000448E-2,9.826950073E0
2.093429745E0,-1.279500127E-1,6.495000422E-2,9.858000755E0
2.095930285E0,-1.159500033E-1,7.395000011E-2,9.858000755E0
2.098430670E0,-2.505000122E-2,7.695000619E-2,9.856050491E0
2.100931206E0,3.000000026E-3,5.295000225E-2,9.817050934E0
2.103431822E0,-6.795000285E-2,3.600000218E-2,9.834000587E0
2.105932209E0,-1.159500033E-1,4.305000231E-2,9.847950935E0
2.108432745E0,-9.195000678E-2,6.000000238E-2,9.868050575E0
2.110933132E0,-1.305000018E-2,7.695000619E-2,9.865050316E0
2.113433745E0,2.700000070E-2,4.500000179E-2,9.838950157E0
2.115934285E0,-4.905000329E-2,4.095000029E-2,9.822000504E0
2.118434670E0,-1.300500035E-1,4.095000029E-2,9.844050407E0
2.120935207E0,-1.300500035E-1,5.505000427E-2,9.862950325E0
2.123435598E0,-1.695000008E-2,4.500000179E-2,9.841050148E0
2.125936212E0,-1.050000079E-3,3.600000218E-2,9.810000420E0
2.128436752E0,-7.005000114E-2,1.200000010E-2,9.805050850E0
2.130937137E0,-1.249500066E-1,1.395000052E-2,9.850950241E0
2.133437653E0,-1.200000048E-1,4.305000231E-2,9.877050400E0
2.135938268E0,-4.905000329E-2,1.695000008E-2,9.859950066E0
2.138438655E0,-3.405000269E-2,-2.505000122E-2,9.838950157E0
2.140939192E0,-8.205000311E-2,-4.200000316E-2,9.829050064E0
2.143439558E0,-1.540500075E-1,-1.800000109E-2,9.847950935E0
2.145940172E0,-1.300500035E-1,1.950000064E-3,9.880050659E0
2.148440712E0,-2.700000070E-2,-9.000000544E-3,9.862950325E0
2.150941325E0,1.800000109E-2,-4.905000329E-2,9.817050934E0
2.153441635E0,-7.005000114E-2,-3.495000303E-2,9.813000679E0
2.155942254E0,-1.420500129E-1,-2.100000158E-2,9.853050232E0
2.158442640E0,-1.159500033E-1,2.400000021E-2,9.883950233E0
2.160943254E0,-2.505000122E-2,1.905000024E-2,9.853050232E0
2.163443563E0,1.005000062E-2,-1.050000079E-3,9.841050148E0
2.165944168E0,-6.000000238E-2,-2.295000106E-2,9.826950073E0
2.168444706E0,-1.230000034E-1,2.895000204E-2,9.838950157E0
2.170945093E0,-1.110000089E-1,6.000000238E-2,9.844050407E0
2.173445629E0,-2.505000122E-2,1.905000024E-2,9.858000755E0
2.175946259E0,7.950000465E-3,-6.000000052E-3,9.825000763E0
2.178446645E0,-6.300000101E-2,-2.295000106E-2,9.825000763E0
2.180947182E0,-1.440000087E-1,0.000000000E0,9.850950241E0
2.183447568E0,-1.159500033E-1,2.595000155E-2,9.886950493E0
2.185948167E0,-7.950000465E-3,7.050000131E-3,9.865050316E0
2.188448707E0,2.505000122E-2,-2.505000122E-2,9.825000763E0
2.190949092E0,-5.295000225E-2,-3.705000132E-2,9.838950157E0
2.193449705E0,-1.180500090E-1,-1.095000096E-2,9.838950157E0
2.195949991E0,-6.495000422E-2,0.000000000E0,9.859950066E0
2.198450604E0,1.500000060E-2,-6.000000052E-3,9.847950935E0
2.200951143E0,3.705000132E-2,-2.100000158E-2,9.832050323E0
2.203451758E0,-1.695000008E-2,-4.050000105E-3,9.829050064E0
2.205952068E0,-9.405000508E-2,4.500000179E-2,9.844050407E0
2.208452653E0,-7.005000114E-2,7.905000448E-2,9.858000755E0
2.210953040E0,2.700000070E-2,4.500000179E-2,9.862950325E0
2.213453653E0,4.395000264E-2,4.305000231E-2,9.826950073E0
2.215953963E0,-1.005000062E-2,6.900000572E-2,9.820050240E0
2.218454571E0,-9.900000691E-2,1.120500043E-1,9.841050148E0
2.220955110E0,-6.495000422E-2,1.200000048E-1,9.865050316E0
2.223455725E0,2.205000073E-2,9.105000645E-2,9.844050407E0
2.225956035E0,4.605000094E-2,6.000000238E-2,9.810000420E0
2.228456662E0,-1.695000008E-2,6.000000238E-2,9.841050148E0
2.230957049E0,-9.600000083E-2,1.050000042E-1,9.865050316E0
2.233457662E0,-5.805000290E-2,1.050000042E-1,9.880050659E0
2.235957972E0,3.900000080E-2,7.905000448E-2,9.844050407E0
2.238458585E0,7.304999977E-2,3.299999982E-2,9.822000504E0
2.240959124E0,1.500000060E-2,2.595000155E-2,9.834000587E0
2.243459510E0,-7.200000435E-2,7.200000435E-2,9.856050491E0
2.245960124E0,-3.195000067E-2,8.100000024E-2,9.877050400E0
2.248460654E0,5.595000088E-2,2.400000021E-2,9.850950241E0
2.250961039E0,1.060500070E-1,7.050000131E-3,9.835950851E0
2.253461575E0,5.295000225E-2,2.895000204E-2,9.835950851E0
2.255962191E0,-2.505000122E-2,8.400000632E-2,9.841050148E0
2.258462577E0,-1.995000057E-2,1.009500027E-1,9.880050659E0
2.260963114E0,7.695000619E-2,5.700000376E-2,9.810000420E0
2.263463500E0,1.129500046E-1,-9.000000544E-3,9.825000763E0
2.265964114E0,5.595000088E-2,1.395000052E-2,9.832050323E0
2.268464654E0,1.050000079E-3,7.200000435E-2,9.865050316E0
2.270965030E0,6.000000052E-3,8.595000207E-2,9.871950150E0
2.273465566E0,7.995000482E-2,4.305000231E-2,9.841050148E0
2.275966182E0,1.060500070E-1,-1.095000096E-2,9.822000504E0
2.278466492E0,7.500000298E-2,-9.000000544E-3,9.834000587E0
2.280967105E0,-1.050000079E-3,3.600000218E-2,9.859950066E0
2.283467492E0,-1.005000062E-2,6.000000238E-2,9.868050575E0
2.285968105E0,7.304999977E-2,2.595000155E-2,9.856050491E0
2.288468645E0,1.180500090E-1,-2.100000158E-2,9.834000587E0
2.290969030E0,7.005000114E-2,-1.095000096E-2,9.835950851E0
2.293469566E0,2.205000073E-2,3.600000218E-2,9.871950150E0
2.295970182E0,2.700000070E-2,5.295000225E-2,9.871950150E0
2.298470568E0,8.505000174E-2,2.595000155E-2,9.846000671E0
2.300971105E0,1.469999999E-1,4.950000439E-3,9.838950157E0
2.303471724E0,9.195000678E-2,-1.050000079E-3,9.847950935E0
2.305972034E0,3.195000067E-2,7.200000435E-2,9.870000839E0
2.308472647E0,4.095000029E-2,7.695000619E-2,9.846000671E0
2.310973034E0,1.009500027E-1,4.800000042E-2,9.829050064E0
2.313473576E0,1.440000087E-1,1.005000062E-2,9.805050850E0
2.315973962E0,1.039500013E-1,4.305000231E-2,9.829050064E0
2.318474576E0,5.595000088E-2,8.895000070E-2,9.858000755E0
2.320975116E0,3.405000269E-2,7.695000619E-2,9.859950066E0
2.323475501E0,9.405000508E-2,5.295000225E-2,9.835950851E0
2.325976037E0,1.090500057E-1,3.299999982E-2,9.820050240E0
2.328476652E0,7.500000298E-2,5.700000376E-2,9.850950241E0
2.330977039E0,1.500000060E-2,8.595000207E-2,9.850950241E0
2.333477591E0,4.095000029E-2,8.100000024E-2,9.868050575E0
2.335978206E0,7.695000619E-2,1.695000008E-2,9.838950157E0
2.338478593E0,1.159500033E-1,0.000000000E0,9.817050934E0
2.340979129E0,6.795000285E-2,4.950000439E-3,9.826950073E0
2.343479506E0,1.800000109E-2,6.900000572E-2,9.856050491E0
2.345980119E0,2.205000073E-2,9.105000645E-2,9.870000839E0
2.348480660E0,1.180500090E-1,2.400000021E-2,9.856050491E0
2.350981044E0,1.660500020E-1,-2.805000171E-2,9.810000420E0
2.353481605E0,1.319999993E-1,0.000000000E0,9.846000671E0
2.355982220E0,8.700000495E-2,4.995000362E-2,9.859950066E0
2.358482607E0,9.405000508E-2,4.995000362E-2,9.870000839E0
2.360983143E0,1.440000087E-1,1.695000008E-2,9.829050064E0
2.363483530E0,1.710000038E-1,-3.299999982E-2,9.813000679E0
2.365984090E0,1.519500017E-1,1.005000062E-2,9.822000504E0
2.368484477E0,1.129500046E-1,3.105000220E-2,9.862950325E0
2.370985090E0,1.090500057E-1,3.299999982E-2,9.865050316E0
2.373485631E0,1.519500017E-1,-1.095000096E-2,9.826950073E0
2.375986020E0,1.710000038E-1,-4.695000127E-2,9.817050934E0
2.378486557E0,1.489500105E-1,-3.299999982E-2,9.826950073E0
2.380987172E0,1.399500072E-1,1.395000052E-2,9.850950241E0
2.383487559E0,1.200000048E-1,1.395000052E-2,9.868050575E0
2.385988158E0,1.680000126E-1,-3.299999982E-2,9.846000671E0
2.388488699E0,1.780500114E-1,-8.505000174E-2,9.810000420E0
2.390989083E0,1.590000093E-1,-7.605000585E-2,9.832050323E0
2.393489620E0,1.159500033E-1,-4.695000127E-2,9.874950409E0
2.395989991E0,1.200000048E-1,-1.050000079E-3,9.868050575E0
2.398490605E0,1.590000093E-1,-4.200000316E-2,9.856050491E0
2.400991145E0,2.110500038E-1,-7.605000585E-2,9.826950073E0
2.403491530E0,1.729500145E-1,-4.905000329E-2,9.829050064E0
2.405992071E0,1.399500072E-1,-2.295000106E-2,9.865050316E0
2.408492687E0,1.369500011E-1,-1.050000079E-3,9.868050575E0
2.410993073E0,1.519500017E-1,-9.000000544E-3,9.832050323E0
2.413493610E0,1.489500105E-1,-1.800000109E-2,9.832050323E0
2.415993977E0,1.159500033E-1,-1.050000079E-3,9.829050064E0
2.418494591E0,8.505000174E-2,2.595000155E-2,9.870000839E0
2.420995131E0,6.795000285E-2,3.600000218E-2,9.858000755E0
2.423495516E0,1.060500070E-1,2.400000021E-2,9.847950935E0
2.425996066E0,1.060500070E-1,-1.050000079E-3,9.832050323E0
2.428496682E0,4.605000094E-2,2.205000073E-2,9.835950851E0
2.430997068E0,1.050000079E-3,3.600000218E-2,9.871950150E0
2.433497605E0,1.800000109E-2,4.095000029E-2,9.862950325E0
2.435997991E0,4.605000094E-2,2.895000204E-2,9.834000587E0
2.438498615E0,5.805000290E-2,1.200000010E-2,9.813000679E0
2.440999155E0,1.305000018E-2,2.595000155E-2,9.832050323E0
2.443499540E0,-1.500000060E-2,3.795000166E-2,9.886950493E0
2.446000076E0,-1.050000079E-3,4.305000231E-2,9.862950325E0
2.448500477E0,1.995000057E-2,4.500000179E-2,9.850950241E0
2.451001090E0,2.700000070E-2,5.505000427E-2,9.801000595E0
2.453501631E0,3.000000026E-3,5.505000427E-2,9.834000587E0
2.456002015E0,-1.995000057E-2,9.105000645E-2,9.850950241E0
2.458502624E0,-7.950000465E-3,7.695000619E-2,9.856050491E0
2.461003164E0,1.800000109E-2,4.500000179E-2,9.834000587E0
2.463503549E0,2.505000122E-2,6.705000252E-2,9.813000679E0
2.466004085E0,-2.700000070E-2,7.905000448E-2,9.838950157E0
2.468504717E0,-6.795000285E-2,1.009500027E-1,9.871950150E0
2.471005103E0,-6.495000422E-2,8.100000024E-2,9.889050484E0
2.473505640E0,6.000000052E-3,6.495000422E-2,9.844050407E0
2.476006027E0,1.305000018E-2,3.299999982E-2,9.808050156E0
2.478506640E0,-2.505000122E-2,5.295000225E-2,9.832050323E0
2.481007189E0,-7.995000482E-2,5.505000427E-2,9.870000839E0
2.483507574E0,-7.200000435E-2,4.095000029E-2,9.862950325E0
2.486008110E0,-1.500000060E-2,1.695000008E-2,9.847950935E0
2.488508726E0,6.000000052E-3,-1.050000079E-3,9.835950851E0
2.491009107E0,-1.500000060E-2,1.200000010E-2,9.853050232E0
2.493509644E0,-7.005000114E-2,4.950000439E-3,9.880050659E0
2.496010031E0,-6.795000285E-2,2.400000021E-2,9.877050400E0
2.498510644E0,-1.500000060E-2,-6.000000052E-3,9.834000587E0
2.501011184E0,1.500000060E-2,-6.000000052E-3,9.822000504E0
2.503511565E0,-2.895000204E-2,-9.000000544E-3,9.826950073E0
2.506012102E0,-7.200000435E-2,7.050000131E-3,9.856050491E0
2.508512488E0,-6.300000101E-2,1.005000062E-2,9.868050575E0
2.511013102E0,-3.000000026E-3,1.200000010E-2,9.838950157E0
2.513513632E0,6.000000052E-3,-4.050000105E-3,9.820050240E0
2.516014017E0,-2.505000122E-2,1.200000010E-2,9.834000587E0
2.518514553E0,-8.400000632E-2,-1.095000096E-2,9.871950150E0
2.521015168E0,-7.200000435E-2,-2.100000158E-2,9.868050575E0
2.523515540E0,-4.950000439E-3,-4.050000105E-3,9.844050407E0
2.526016154E0,3.900000080E-2,-9.000000544E-3,9.813000679E0
2.528516694E0,2.700000070E-2,1.950000064E-3,9.829050064E0
2.531017079E0,-5.295000225E-2,-2.295000106E-2,9.853050232E0
2.533517615E0,-4.905000329E-2,-3.000000119E-2,9.870000839E0
2.536018017E0,3.000000119E-2,-3.000000119E-2,9.844050407E0
2.538518553E0,6.300000101E-2,-1.605000161E-2,9.825000763E0
2.541019169E0,4.095000029E-2,7.050000131E-3,9.829050064E0
2.543519555E0,-1.695000008E-2,1.695000008E-2,9.856050491E0
2.546020106E0,-1.050000079E-3,-1.305000018E-2,9.850950241E0
2.548520492E0,9.405000508E-2,1.005000062E-2,9.835950851E0
2.551021106E0,1.159500033E-1,4.095000029E-2,9.813000679E0
2.553521646E0,7.304999977E-2,4.500000179E-2,9.834000587E0
2.556022065E0,3.000000026E-3,5.295000225E-2,9.865050316E0
2.558522601E0,-3.900000080E-2,6.495000422E-2,9.871950150E0
2.561023217E0,5.100000277E-2,4.995000362E-2,9.844050407E0
2.563523603E0,7.995000482E-2,8.595000207E-2,9.820050240E0
2.566024140E0,2.505000122E-2,9.300000221E-2,9.834000587E0
2.568524745E0,-8.400000632E-2,8.400000632E-2,9.858000755E0
2.571025132E0,-1.369500011E-1,5.295000225E-2,9.868050575E0
2.573525668E0,-4.395000264E-2,2.595000155E-2,9.844050407E0
2.576026055E0,-1.050000079E-3,5.295000225E-2,9.822000504E0
2.578526644E0,-7.005000114E-2,6.000000238E-2,9.826950073E0
2.581027185E0,-1.440000087E-1,5.295000225E-2,9.880050659E0
2.583527569E0,-1.660500020E-1,4.095000029E-2,9.865050316E0
2.586028106E0,-8.400000632E-2,1.905000024E-2,9.853050232E0
2.588528735E0,3.000000026E-3,1.695000008E-2,9.820050240E0
2.591029045E0,-3.195000067E-2,2.595000155E-2,9.834000587E0
2.593529658E0,-1.159500033E-1,0.000000000E0,9.868050575E0
2.596030045E0,-1.420500129E-1,-1.605000161E-2,9.847950935E0
2.598530581E0,-1.995000057E-2,-2.295000106E-2,9.853050232E0
2.601031202E0,6.105000153E-2,-4.050000105E-3,9.813000679E0
2.603531588E0,2.700000070E-2,7.050000131E-3,9.822000504E0
2.606032125E0,-9.900000691E-2,-1.305000018E-2,9.858000755E0
2.608532511E0,-1.230000034E-1,-4.695000127E-2,9.880050659E0
2.611033115E0,-2.205000073E-2,-3.299999982E-2,9.841050148E0
2.613533655E0,7.304999977E-2,1.395000052E-2,9.825000763E0
2.616034040E0,7.304999977E-2,-1.050000079E-3,9.834000587E0
2.618534576E0,-3.900000080E-2,-3.495000303E-2,9.856050491E0
2.621035192E0,-8.205000311E-2,-3.705000132E-2,9.850950241E0
2.623535578E0,7.950000465E-3,-4.695000127E-2,9.844050407E0
2.626036115E0,1.319999993E-1,-1.605000161E-2,9.834000587E0
2.628536501E0,1.110000089E-1,-2.805000171E-2,9.817050934E0
2.631037091E0,1.800000109E-2,-4.005000368E-2,9.847950935E0
2.633537631E0,-1.500000060E-2,-5.205000192E-2,9.862950325E0
2.636037996E0,1.090500057E-1,-3.495000303E-2,9.841050148E0
2.638538532E0,2.040000111E-1,0.000000000E0,9.835950851E0
2.641039148E0,1.990500093E-1,-1.800000109E-2,9.825000763E0
2.643539534E0,1.159500033E-1,-4.500000179E-2,9.846000671E0
2.646040071E0,8.205000311E-2,-5.895000324E-2,9.862950325E0
2.648540686E0,1.660500020E-1,-1.095000096E-2,9.838950157E0
2.651041064E0,3.019500077E-1,2.205000073E-2,9.825000763E0
2.653541600E0,3.169500232E-1,3.600000218E-2,9.841050148E0
2.656041987E0,2.110500038E-1,1.200000010E-2,9.853050232E0
2.658542600E0,1.710000038E-1,-2.100000158E-2,9.853050232E0
2.661042905E0,2.470500171E-1,2.400000021E-2,9.841050148E0
2.663543518E0,3.310500085E-1,6.195000187E-2,9.826950073E0
2.666044057E0,3.240000010E-1,9.600000083E-2,9.841050148E0
2.668544672E0,2.380500138E-1,5.505000427E-2,9.841050148E0
2.671044967E0,1.830000132E-1,2.595000155E-2,9.850950241E0
2.673545580E0,2.639999986E-1,6.195000187E-2,9.835950851E0
2.676045967E0,3.409500122E-1,8.595000207E-2,9.832050323E0
2.678546503E0,2.950500250E-1,8.400000632E-2,9.844050407E0
2.681046890E0,1.800000072E-1,4.095000029E-2,9.859950066E0
2.683547532E0,1.110000089E-1,2.205000073E-2,9.865050316E0
2.686048073E0,2.040000111E-1,3.600000218E-2,9.838950157E0
2.688548458E0,2.740500271E-1,7.200000435E-2,9.817050934E0
2.691048994E0,2.400000095E-1,7.905000448E-2,9.844050407E0
2.693549614E0,1.230000034E-1,5.505000427E-2,9.865050316E0
2.696050001E0,3.705000132E-2,1.005000062E-2,9.865050316E0
2.698550614E0,9.405000508E-2,1.395000052E-2,9.834000587E0
2.701051155E0,1.759500057E-1,6.705000252E-2,9.822000504E0
2.703551511E0,1.660500020E-1,6.000000238E-2,9.856050491E0
2.706052047E0,5.295000225E-2,3.299999982E-2,9.858000755E0
2.708552434E0,-5.595000088E-2,4.950000439E-3,9.856050491E0
2.711053047E0,1.050000079E-3,3.600000218E-2,9.844050407E0
2.713553573E0,4.095000029E-2,3.795000166E-2,9.825000763E0
2.716053958E0,3.000000026E-3,2.400000021E-2,9.829050064E0
2.718554495E0,-1.180500090E-1,-1.800000109E-2,9.838950157E0
2.721055110E0,-1.729500145E-1,-2.295000106E-2,9.859950066E0
2.723555501E0,-1.249500066E-1,4.950000439E-3,9.853050232E0
2.726056037E0,-6.795000285E-2,3.600000218E-2,9.838950157E0
2.728556424E0,-7.200000435E-2,3.105000220E-2,9.838950157E0
2.731057037E0,-1.849500090E-1,1.950000064E-3,9.862950325E0
2.733557352E0,-2.659500241E-1,-1.800000109E-2,9.850950241E0
2.736057965E0,-2.260500044E-1,4.950000439E-3,9.844050407E0
2.738558504E0,-1.129500046E-1,4.500000179E-2,9.838950157E0
2.741059119E0,-9.195000678E-2,5.295000225E-2,9.820050240E0
2.743559506E0,-1.800000072E-1,2.595000155E-2,9.858000755E0
2.746060052E0,-2.230500132E-1,2.400000021E-2,9.856050491E0
2.748560439E0,-1.870500147E-1,5.295000225E-2,9.862950325E0
2.751061052E0,-8.400000632E-2,7.395000011E-2,9.822000504E0
2.753561593E0,-1.039500013E-1,7.200000435E-2,9.835950851E0
2.756061981E0,-1.729500145E-1,5.505000427E-2,9.853050232E0
2.758562518E0,-1.990500093E-1,4.800000042E-2,9.856050491E0
2.761062904E0,-1.350000054E-1,8.895000070E-2,9.865050316E0
2.763563518E0,-5.595000088E-2,1.219500080E-1,9.834000587E0
2.766064063E0,-6.795000285E-2,1.150500029E-1,9.825000763E0
2.768564448E0,-1.180500090E-1,6.705000252E-2,9.838950157E0
2.771064984E0,-1.510500014E-1,4.305000231E-2,9.856050491E0
2.773565600E0,-7.695000619E-2,6.495000422E-2,9.847950935E0
2.776065986E0,-3.000000026E-3,6.495000422E-2,9.841050148E0
2.778566547E0,3.195000067E-2,5.505000427E-2,9.834000587E0
2.781067162E0,-4.905000329E-2,-9.000000544E-3,9.846000671E0
2.783567549E0,-7.200000435E-2,-2.505000122E-2,9.850950241E0
2.786068085E0,-1.050000079E-3,-2.295000106E-2,9.832050323E0
2.788568468E0,7.695000619E-2,-1.605000161E-2,9.820050240E0
2.791069004E0,7.695000619E-2,-4.695000127E-2,9.826950073E0
2.793569620E0,3.705000132E-2,-7.605000585E-2,9.834000587E0
2.796070006E0,4.095000029E-2,-8.805000782E-2,9.870000839E0
2.798570552E0,1.039500013E-1,-6.599999964E-2,9.850950241E0
2.801071167E0,1.540500075E-1,-4.695000127E-2,9.826950073E0
2.803571554E0,1.560000032E-1,-3.495000303E-2,9.835950851E0
2.806072090E0,8.205000311E-2,-7.304999977E-2,9.847950935E0
2.808572477E0,5.295000225E-2,-9.705000371E-2,9.871950150E0
2.811073090E0,9.705000371E-2,-6.105000153E-2,9.865050316E0
2.813573631E0,1.319999993E-1,-3.299999982E-2,9.822000504E0
2.816074015E0,8.895000070E-2,-3.705000132E-2,9.825000763E0
2.818574552E0,-1.695000008E-2,-6.405000389E-2,9.847950935E0
2.821074938E0,-6.300000101E-2,-4.500000179E-2,9.874950409E0
2.823575552E0,-3.705000132E-2,-4.200000316E-2,9.856050491E0
2.826076092E0,-1.305000018E-2,-1.605000161E-2,9.835950851E0
2.828576477E0,-6.795000285E-2,-4.005000368E-2,9.829050064E0
2.831077027E0,-1.350000054E-1,-6.599999964E-2,9.859950066E0
2.833577643E0,-1.489500105E-1,-4.200000316E-2,9.858000755E0
2.836078029E0,-1.300500035E-1,-2.805000171E-2,9.850950241E0
2.838578566E0,-7.005000114E-2,-2.100000158E-2,9.829050064E0
2.841078952E0,-1.060500070E-1,-5.400000140E-2,9.832050323E0
2.843579489E0,-1.710000038E-1,-7.995000482E-2,9.847950935E0
2.846080104E0,-1.800000072E-1,-7.095000148E-2,9.882000923E0
2.848580491E0,-1.369500011E-1,-3.495000303E-2,9.868050575E0
2.851080999E0,-1.009500027E-1,4.950000439E-3,9.838950157E0
2.853581615E0,-1.469999999E-1,-1.800000109E-2,9.825000763E0
2.856082001E0,-2.209500074E-1,-4.005000368E-2,9.841050148E0
2.858582538E0,-2.419500053E-1,-1.800000109E-2,9.847950935E0
2.861082925E0,-2.089500129E-1,4.950000439E-3,9.858000755E0
2.863583538E0,-1.680000126E-1,1.005000062E-2,9.847950935E0
2.866084078E0,-1.780500114E-1,1.395000052E-2,9.838950157E0
2.868584463E0,-2.040000111E-1,-2.295000106E-2,9.841050148E0
2.871085003E0,-2.020500153E-1,-9.000000544E-3,9.850950241E0
2.873585619E0,-1.230000034E-1,1.395000052E-2,9.847950935E0
2.876086005E0,-5.595000088E-2,1.695000008E-2,9.834000587E0
2.878586542E0,-2.505000122E-2,-2.505000122E-2,9.829050064E0
2.881086929E0,-4.605000094E-2,-5.205000192E-2,9.850950241E0
2.883587557E0,-7.950000465E-3,-4.695000127E-2,9.846000671E0
2.886088097E0,8.895000070E-2,1.695000008E-2,9.841050148E0
2.888588482E0,1.780500114E-1,3.600000218E-2,9.832050323E0
2.891089095E0,1.590000093E-1,3.105000220E-2,9.822000504E0
2.893589621E0,1.440000087E-1,1.695000008E-2,9.829050064E0
2.896090006E0,1.489500105E-1,3.795000166E-2,9.858000755E0
2.898590542E0,2.110500038E-1,6.705000252E-2,9.853050232E0
2.901091157E0,2.520000041E-1,1.050000042E-1,9.829050064E0
2.903591487E0,2.400000095E-1,1.270500124E-1,9.817050934E0
2.906092100E0,1.969500035E-1,1.219500080E-1,9.847950935E0
2.908592487E0,1.710000038E-1,1.480500102E-1,9.838950157E0
2.911093024E0,2.020500153E-1,1.560000032E-1,9.856050491E0
2.913593419E0,2.190000117E-1,1.530000120E-1,9.835950851E0
2.916094033E0,1.800000072E-1,1.390500069E-1,9.826950073E0
2.918594573E0,9.900000691E-2,1.339500099E-1,9.847950935E0
2.921094958E0,7.500000298E-2,1.270500124E-1,9.858000755E0
2.923595485E0,1.319999993E-1,1.270500124E-1,9.859950066E0
2.926096101E0,1.660500020E-1,1.009500027E-1,9.814950943E0
2.928596487E0,1.420500129E-1,5.700000376E-2,9.822000504E0
2.931097024E0,7.995000482E-2,2.895000204E-2,9.841050148E0
2.933597410E0,6.795000285E-2,3.105000220E-2,9.871950150E0
2.936098023E0,1.249500066E-1,3.105000220E-2,9.858000755E0
2.938598563E0,1.849500090E-1,1.695000008E-2,9.814950943E0
2.941098948E0,1.660500020E-1,0.000000000E0,9.822000504E0
2.943599561E0,9.705000371E-2,7.050000131E-3,9.846000671E0
2.946100088E0,8.895000070E-2,3.105000220E-2,9.862950325E0
2.948600472E0,1.159500033E-1,1.395000052E-2,9.874950409E0
2.951101009E0,1.590000093E-1,-1.050000079E-3,9.846000671E0
2.953601624E0,1.230000034E-1,-2.805000171E-2,9.822000504E0
2.956102011E0,6.795000285E-2,-2.505000122E-2,9.825000763E0
2.958602547E0,4.605000094E-2,-1.050000079E-3,9.844050407E0
2.961102934E0,8.205000311E-2,1.005000062E-2,9.871950150E0
2.963603547E0,1.180500090E-1,-4.050000105E-3,9.834000587E0
2.966104088E0,9.900000691E-2,-4.695000127E-2,9.822000504E0
2.968604491E0,3.705000132E-2,-7.095000148E-2,9.841050148E0
2.971105028E0,2.205000073E-2,-4.005000368E-2,9.865050316E0
2.973605414E0,6.300000101E-2,-4.200000316E-2,9.862950325E0
2.976106028E0,1.489500105E-1,-5.205000192E-2,9.846000671E0
2.978606583E0,1.369500011E-1,-7.995000482E-2,9.805050850E0
2.981106968E0,9.705000371E-2,-4.905000329E-2,9.834000587E0
2.983607504E0,7.995000482E-2,-2.295000106E-2,9.871950150E0
2.986108120E0,1.319999993E-1,-4.050000105E-3,9.858000755E0
2.988608506E0,1.879500151E-1,-2.100000158E-2,9.841050148E0
2.991109043E0,2.160000056E-1,-1.605000161E-2,9.832050323E0
2.993609429E0,1.590000093E-1,2.595000155E-2,9.826950073E0
2.996110043E0,1.319999993E-1,7.200000435E-2,9.862950325E0
2.998610574E0,2.020500153E-1,1.050000042E-1,9.862950325E0
3.001110959E0,2.230500132E-1,1.099500060E-1,9.832050323E0
3.003611495E0,1.969500035E-1,1.050000042E-1,9.820050240E0
3.006112111E0,1.300500035E-1,1.270500124E-1,9.832050323E0
3.008612511E0,9.405000508E-2,1.680000126E-1,9.862950325E0
3.011113048E0,1.039500013E-1,1.960500032E-1,9.856050491E0
3.013613434E0,1.489500105E-1,2.029500157E-1,9.838950157E0
3.016114048E0,1.469999999E-1,1.699500084E-1,9.829050064E0
3.018614588E0,1.129500046E-1,1.890000105E-1,9.835950851E0
3.021114968E0,7.695000619E-2,1.990500093E-1,9.859950066E0
3.023615504E0,1.200000048E-1,2.029500157E-1,9.870000839E0
3.026116120E0,2.089500129E-1,1.600500047E-1,9.822000504E0
3.028616506E0,2.260500044E-1,1.360500008E-1,9.825000763E0
3.031117039E0,1.879500151E-1,1.339500099E-1,9.832050323E0
3.033617654E0,1.800000072E-1,1.630500108E-1,9.862950325E0
3.036118041E0,2.329500169E-1,1.630500108E-1,9.846000671E0
3.038618577E0,2.779500186E-1,1.319999993E-1,9.844050407E0
3.041118959E0,2.500500083E-1,8.895000070E-2,9.820050240E0
3.043619572E0,1.800000072E-1,9.600000083E-2,9.829050064E0
3.046120113E0,1.710000038E-1,1.200000048E-1,9.862950325E0
3.048620497E0,1.560000032E-1,1.270500124E-1,9.856050491E0
3.051121034E0,1.920000017E-1,6.495000422E-2,9.826950073E0
3.053621649E0,1.639500111E-1,4.305000231E-2,9.825000763E0
3.056121959E0,8.700000495E-2,5.295000225E-2,9.846000671E0
3.058622572E0,1.500000060E-2,6.000000238E-2,9.862950325E0
3.061122959E0,-1.050000079E-3,6.000000238E-2,9.871950150E0
3.063623572E0,3.900000080E-2,1.905000024E-2,9.841050148E0
3.066123867E0,3.405000269E-2,-2.295000106E-2,9.820050240E0
3.068624480E0,-1.005000062E-2,7.050000131E-3,9.825000763E0
3.071125019E0,-4.905000329E-2,5.700000376E-2,9.877050400E0
3.073625406E0,-1.305000018E-2,7.395000011E-2,9.865050316E0
3.076125990E0,7.950000465E-3,2.895000204E-2,9.850950241E0
3.078626530E0,4.395000264E-2,1.395000052E-2,9.820050240E0
3.081126915E0,3.000000026E-3,2.205000073E-2,9.850950241E0
3.083627452E0,-1.005000062E-2,7.695000619E-2,9.859950066E0
3.086128053E0,1.305000018E-2,1.099500060E-1,9.865050316E0
3.088628440E0,5.595000088E-2,1.080000028E-1,9.829050064E0
3.091128976E0,7.695000619E-2,7.395000011E-2,9.813000679E0
3.093629363E0,5.295000225E-2,9.300000221E-2,9.826950073E0
3.096129986E0,-1.050000079E-3,1.240500063E-1,9.862950325E0
3.098630526E0,2.205000073E-2,1.630500108E-1,9.859950066E0
3.101130911E0,5.805000290E-2,1.510500014E-1,9.829050064E0
3.103631448E0,6.795000285E-2,1.319999993E-1,9.832050323E0
3.106132063E0,2.700000070E-2,1.650000066E-1,9.847950935E0
3.108632450E0,-1.695000008E-2,1.939500123E-1,9.859950066E0
3.111132986E0,2.505000122E-2,2.010000050E-1,9.862950325E0
3.113633373E0,5.805000290E-2,1.720500141E-1,9.835950851E0
3.116133976E0,7.304999977E-2,1.480500102E-1,9.826950073E0
3.118634517E0,6.300000101E-2,1.579500139E-1,9.846000671E0
3.121134901E0,3.405000269E-2,1.720500141E-1,9.859950066E0
3.123635515E0,6.105000153E-2,1.990500093E-1,9.844050407E0
3.126136055E0,8.895000070E-2,1.699500084E-1,9.834000587E0
3.128636430E0,1.039500013E-1,1.480500102E-1,9.834000587E0
3.131136966E0,3.705000132E-2,1.319999993E-1,9.826950073E0
3.133637353E0,3.000000026E-3,1.459500045E-1,9.871950150E0
3.136137966E0,1.500000060E-2,1.459500045E-1,9.858000755E0
3.138638498E0,3.900000080E-2,1.099500060E-1,9.834000587E0
3.141138882E0,1.005000062E-2,9.795000404E-2,9.808050156E0
3.143639419E0,-3.900000080E-2,9.795000404E-2,9.814950943E0
3.146139805E0,-8.205000311E-2,1.009500027E-1,9.847950935E0
3.148640419E0,-8.205000311E-2,8.400000632E-2,9.868050575E0
3.151140934E0,-7.200000435E-2,3.795000166E-2,9.847950935E0
3.153641319E0,-7.200000435E-2,2.205000073E-2,9.822000504E0
3.156141855E0,-9.405000508E-2,3.600000218E-2,9.838950157E0
3.158642471E0,-1.060500070E-1,5.295000225E-2,9.856050491E0
3.161142852E0,-9.600000083E-2,3.795000166E-2,9.862950325E0
3.163643389E0,-3.705000132E-2,1.905000024E-2,9.829050064E0
3.166143775E0,-4.950000439E-3,-2.805000171E-2,9.808050156E0
3.168644389E0,-4.605000094E-2,1.950000064E-3,9.844050407E0
3.171144953E0,-2.205000073E-2,4.950000439E-3,9.868050575E0
3.173645338E0,3.195000067E-2,1.905000024E-2,9.858000755E0
3.176145951E0,1.009500027E-1,-4.050000105E-3,9.826950073E0
3.178646492E0,1.279500127E-1,-2.505000122E-2,9.813000679E0
3.181146876E0,1.319999993E-1,-2.295000106E-2,9.835950851E0
3.183647413E0,1.279500127E-1,-1.095000096E-2,9.865050316E0
3.186148028E0,1.590000093E-1,-9.000000544E-3,9.844050407E0
3.188648415E0,2.260500044E-1,-1.305000018E-2,9.834000587E0
3.191148951E0,2.380500138E-1,-2.505000122E-2,9.793050766E0
3.193649357E0,1.990500093E-1,-1.605000161E-2,9.817050934E0
3.196149970E0,1.780500114E-1,3.299999982E-2,9.853050232E0
3.198650511E0,1.950000077E-1,5.700000376E-2,9.850950241E0
3.201150895E0,2.110500038E-1,4.305000231E-2,9.822000504E0
3.203651437E0,1.920000017E-1,3.795000166E-2,9.814950943E0
3.206152052E0,1.399500072E-1,7.395000011E-2,9.832050323E0
3.208652439E0,1.009500027E-1,1.099500060E-1,9.856050491E0
3.211152975E0,1.159500033E-1,1.290000081E-1,9.865050316E0
3.213653376E0,1.590000093E-1,1.459500045E-1,9.829050064E0
3.216153912E0,1.440000087E-1,1.600500047E-1,9.817050934E0
3.218654528E0,9.705000371E-2,1.630500108E-1,9.834000587E0
3.221154914E0,7.695000619E-2,1.770000011E-1,9.850950241E0
3.223655437E0,1.039500013E-1,1.870500147E-1,9.870000839E0
3.226155823E0,1.420500129E-1,1.699500084E-1,9.847950935E0
3.228656437E0,1.489500105E-1,1.459500045E-1,9.810000420E0
3.231156977E0,8.205000311E-2,1.390500069E-1,9.835950851E0
3.233657366E0,5.805000290E-2,1.530000120E-1,9.862950325E0
3.236157902E0,8.505000174E-2,1.150500029E-1,9.868050575E0
3.238658518E0,9.705000371E-2,7.200000435E-2,9.829050064E0
3.241158904E0,7.500000298E-2,6.195000187E-2,9.814950943E0
3.243659441E0,2.700000070E-2,7.395000011E-2,9.838950157E0
3.246159828E0,-3.000000026E-3,4.995000362E-2,9.865050316E0
3.248660441E0,5.100000277E-2,1.395000052E-2,9.853050232E0
3.251160981E0,8.895000070E-2,1.950000064E-3,9.850950241E0
3.253661366E0,1.039500013E-1,-2.505000122E-2,9.820050240E0
3.256161984E0,6.105000153E-2,-2.100000158E-2,9.853050232E0
3.258662525E0,4.905000329E-2,-3.299999982E-2,9.846000671E0
3.261162909E0,1.249500066E-1,-4.200000316E-2,9.847950935E0
3.263663446E0,2.089500129E-1,-4.905000329E-2,9.820050240E0
3.266164052E0,1.969500035E-1,-3.000000119E-2,9.814950943E0
3.268664439E0,1.729500145E-1,-3.705000132E-2,9.832050323E0
3.271164975E0,1.350000054E-1,-1.605000161E-2,9.858000755E0
3.273665362E0,1.609500051E-1,-4.050000105E-3,9.853050232E0
3.276165970E0,2.110500038E-1,-1.800000109E-2,9.825000763E0
3.278666511E0,1.969500035E-1,2.595000155E-2,9.798000336E0
3.281166896E0,1.159500033E-1,4.800000042E-2,9.829050064E0
3.283667432E0,5.100000277E-2,6.195000187E-2,9.862950325E0
3.286167833E0,3.705000132E-2,4.095000029E-2,9.858000755E0
3.288668446E0,4.905000329E-2,2.895000204E-2,9.844050407E0
3.291168986E0,1.800000109E-2,1.905000024E-2,9.808050156E0
3.293669371E0,-9.900000691E-2,2.895000204E-2,9.825000763E0
3.296169908E0,-1.870500147E-1,3.600000218E-2,9.847950935E0
3.298670538E0,-1.750500053E-1,2.595000155E-2,9.850950241E0
3.301170925E0,-1.009500027E-1,-4.050000105E-3,9.850950241E0
3.303671461E0,-1.110000089E-1,-1.800000109E-2,9.826950073E0
3.306171848E0,-1.990500093E-1,4.950000439E-3,9.847950935E0
3.308672470E0,-2.470500171E-1,-1.095000096E-2,9.859950066E0
3.311173011E0,-2.449500114E-1,-1.800000109E-2,9.870000839E0
3.313673395E0,-1.440000087E-1,-2.805000171E-2,9.829050064E0
3.316173932E0,-1.279500127E-1,0.000000000E0,9.820050240E0
3.318674566E0,-1.729500145E-1,0.000000000E0,9.844050407E0
3.321174953E0,-2.070000172E-1,1.950000064E-3,9.880050659E0
3.323675489E0,-1.780500114E-1,4.950000439E-3,9.868050575E0
3.326175876E0,-9.405000508E-2,7.050000131E-3,9.858000755E0
3.328676489E0,-9.600000083E-2,1.395000052E-2,9.829050064E0
3.331177035E0,-1.279500127E-1,1.695000008E-2,9.835950851E0
3.333677419E0,-1.609500051E-1,1.395000052E-2,9.862950325E0
3.336178033E0,-1.300500035E-1,-9.000000544E-3,9.862950325E0
3.338678573E0,-4.605000094E-2,-4.050000105E-3,9.838950157E0
3.341178939E0,-5.100000277E-2,2.595000155E-2,9.841050148E0
3.343679475E0,-1.279500127E-1,3.105000220E-2,9.841050148E0
3.346180091E0,-1.920000017E-1,-9.000000544E-3,9.856050491E0
3.348680477E0,-1.469999999E-1,-3.000000119E-2,9.844050407E0
3.351181014E0,-7.695000619E-2,-1.095000096E-2,9.835950851E0
3.353681400E0,-5.100000277E-2,2.895000204E-2,9.834000587E0
3.356182014E0,-9.405000508E-2,4.800000042E-2,9.841050148E0
3.358682554E0,-1.609500051E-1,3.299999982E-2,9.868050575E0
3.361182939E0,-1.180500090E-1,1.005000062E-2,9.856050491E0
3.363683470E0,-3.195000067E-2,0.000000000E0,9.847950935E0
3.366184086E0,1.005000062E-2,3.795000166E-2,9.834000587E0
3.368684395E0,-4.905000329E-2,6.195000187E-2,9.838950157E0
3.371185009E0,-1.009500027E-1,2.595000155E-2,9.874950409E0
3.373685395E0,-6.495000422E-2,1.950000064E-3,9.850950241E0
3.376186009E0,-3.405000269E-2,2.400000021E-2,9.853050232E0
3.378686318E0,-2.205000073E-2,4.800000042E-2,9.835950851E0
3.381186932E0,-1.080000028E-1,4.500000179E-2,9.832050323E0
3.383687470E0,-1.540500075E-1,1.395000052E-2,9.862950325E0
3.386187848E0,-1.390500069E-1,-3.495000303E-2,9.856050491E0
3.388688461E0,-3.900000080E-2,-3.299999982E-2,9.844050407E0
3.391189002E0,1.050000079E-3,-3.495000303E-2,9.853050232E0
3.393689386E0,-6.300000101E-2,-1.305000018E-2,9.850950241E0
3.396189923E0,-1.180500090E-1,-4.500000179E-2,9.865050316E0
3.398690538E0,-1.159500033E-1,-7.304999977E-2,9.846000671E0
3.401190925E0,-2.895000204E-2,-7.800000161E-2,9.834000587E0
3.403691461E0,3.195000067E-2,-7.605000585E-2,9.832050323E0
3.406191862E0,-2.895000204E-2,-5.205000192E-2,9.844050407E0
3.408692475E0,-8.205000311E-2,-7.605000585E-2,9.856050491E0
3.411193016E0,-6.000000238E-2,-1.020000055E-1,9.856050491E0
3.413693400E0,1.050000079E-3,-7.800000161E-2,9.846000671E0
3.416193941E0,2.505000122E-2,-4.200000316E-2,9.832050323E0
3.418694556E0,-2.205000073E-2,-3.495000303E-2,9.829050064E0
3.421194943E0,-1.110000089E-1,-4.695000127E-2,9.856050491E0
3.423695479E0,-9.900000691E-2,-5.895000324E-2,9.862950325E0
3.426196095E0,-3.405000269E-2,-3.299999982E-2,9.841050148E0
3.428696477E0,1.005000062E-2,-9.000000544E-3,9.829050064E0
3.431197014E0,-7.200000435E-2,-1.305000018E-2,9.841050148E0
3.433697400E0,-1.420500129E-1,-4.200000316E-2,9.846000671E0
3.436198014E0,-1.540500075E-1,-3.299999982E-2,9.859950066E0
3.438698558E0,-9.900000691E-2,-4.050000105E-3,9.850950241E0
3.441198943E0,-6.300000101E-2,4.305000231E-2,9.838950157E0
3.443699479E0,-1.129500046E-1,4.800000042E-2,9.841050148E0
3.446199866E0,-1.729500145E-1,2.595000155E-2,9.859950066E0
3.448700402E0,-2.020500153E-1,3.105000220E-2,9.844050407E0
3.451201018E0,-1.469999999E-1,6.195000187E-2,9.838950157E0
3.453701404E0,-1.129500046E-1,9.795000404E-2,9.838950157E0
3.456201941E0,-1.039500013E-1,1.009500027E-1,9.853050232E0
3.458702324E0,-1.750500053E-1,8.100000024E-2,9.853050232E0
3.461202937E0,-1.780500114E-1,4.500000179E-2,9.856050491E0
3.463703477E0,-9.900000691E-2,8.100000024E-2,9.841050148E0
3.466203862E0,-4.095000029E-2,1.050000042E-1,9.846000671E0
3.468704394E0,-6.495000422E-2,1.030500084E-1,9.847950935E0
3.471205009E0,-1.080000028E-1,6.705000252E-2,9.846000671E0
3.473705396E0,-7.005000114E-2,4.095000029E-2,9.841050148E0
3.476205932E0,1.005000062E-2,5.295000225E-2,9.834000587E0
3.478706547E0,8.205000311E-2,8.895000070E-2,9.826950073E0
3.481206920E0,1.009500027E-1,8.400000632E-2,9.822000504E0
3.483707456E0,7.304999977E-2,4.995000362E-2,9.844050407E0
3.486207843E0,9.405000508E-2,4.950000439E-3,9.838950157E0
3.488708456E0,1.369500011E-1,4.500000179E-2,9.835950851E0
3.491208987E0,1.759500057E-1,8.895000070E-2,9.835950851E0
3.493709372E0,1.729500145E-1,9.795000404E-2,9.838950157E0
3.496209908E0,1.350000054E-1,1.120500043E-1,9.844050407E0
3.498710523E0,1.420500129E-1,1.240500063E-1,9.834000587E0
3.501210924E0,1.780500114E-1,1.770000011E-1,9.822000504E0
3.503711461E0,1.879500151E-1,2.269500047E-1,9.835950851E0
3.506211847E0,1.609500051E-1,2.509500086E-1,9.835950851E0
3.508712461E0,1.129500046E-1,2.370000184E-1,9.846000671E0
3.511213011E0,1.090500057E-1,2.560500205E-1,9.844050407E0
3.513713396E0,1.230000034E-1,2.989500165E-1,9.829050064E0
3.516214009E0,1.469999999E-1,3.450000286E-1,9.822000504E0
3.518714319E0,1.159500033E-1,3.520500064E-1,9.835950851E0
3.521214917E0,6.495000422E-2,3.160500228E-1,9.847950935E0
3.523715456E0,7.695000619E-2,2.850000262E-1,9.846000671E0
3.526215842E0,8.895000070E-2,2.939999998E-1,9.846000671E0
3.528716379E0,1.090500057E-1,2.779500186E-1,9.834000587E0
3.531216985E0,6.300000101E-2,2.539499998E-1,9.825000763E0
3.533717372E0,5.595000088E-2,2.230500132E-1,9.841050148E0
3.536217908E0,-3.000000026E-3,1.819500029E-1,9.846000671E0
3.538718295E0,1.305000018E-2,1.510500014E-1,9.835950851E0
3.541218908E0,3.405000269E-2,1.459500045E-1,9.846000671E0
3.543719420E0,1.050000079E-3,1.099500060E-1,9.835950851E0
3.546219804E0,-2.895000204E-2,8.400000632E-2,9.844050407E0
3.548720341E0,-2.505000122E-2,8.100000024E-2,9.850950241E0
3.551220956E0,7.950000465E-3,6.900000572E-2,9.832050323E0
3.553721357E0,1.500000060E-2,7.395000011E-2,9.844050407E0
3.556221893E0,6.000000052E-3,6.495000422E-2,9.844050407E0
3.558722509E0,-1.695000008E-2,2.400000021E-2,9.856050491E0
3.561222895E0,-1.305000018E-2,7.050000131E-3,9.846000671E0
3.563723442E0,3.000000026E-3,-1.050000079E-3,9.853050232E0
3.566223828E0,3.405000269E-2,3.299999982E-2,9.841050148E0
3.568724442E0,2.205000073E-2,1.905000024E-2,9.834000587E0
3.571224982E0,7.950000465E-3,0.000000000E0,9.841050148E0
3.573725357E0,2.505000122E-2,-2.100000158E-2,9.838950157E0
3.576225893E0,3.900000080E-2,1.395000052E-2,9.835950851E0
3.578726509E0,5.805000290E-2,1.395000052E-2,9.829050064E0
3.581226895E0,3.900000080E-2,-6.000000052E-3,9.846000671E0
3.583727447E0,3.000000119E-2,1.950000064E-3,9.858000755E0
3.586227833E0,6.495000422E-2,-4.050000105E-3,9.835950851E0
3.588728447E0,7.005000114E-2,0.000000000E0,9.834000587E0
3.591228987E0,5.595000088E-2,2.400000021E-2,9.838950157E0
3.593729372E0,1.995000057E-2,7.050000131E-3,9.829050064E0
3.596229989E0,1.305000018E-2,-9.000000544E-3,9.841050148E0
3.598730299E0,3.000000119E-2,-1.605000161E-2,9.846000671E0
3.601230912E0,6.105000153E-2,0.000000000E0,9.846000671E0
3.603731451E0,6.795000285E-2,4.950000439E-3,9.822000504E0
3.606231842E0,3.705000132E-2,1.005000062E-2,9.825000763E0
3.608732379E0,1.995000057E-2,-1.095000096E-2,9.841050148E0
3.611232994E0,4.605000094E-2,-3.495000303E-2,9.846000671E0
3.613733381E0,8.505000174E-2,-3.705000132E-2,9.825000763E0
3.616233898E0,6.300000101E-2,-3.000000119E-2,9.829050064E0
3.618734285E0,4.605000094E-2,-2.805000171E-2,9.826950073E0
3.621234898E0,3.195000067E-2,-2.505000122E-2,9.838950157E0
3.623735439E0,6.105000153E-2,-4.050000105E-3,9.846000671E0
3.626235823E0,7.995000482E-2,-4.050000105E-3,9.826950073E0
3.628736345E0,7.005000114E-2,4.950000439E-3,9.825000763E0
3.631236960E0,3.705000132E-2,0.000000000E0,9.841050148E0
3.633737347E0,-2.205000073E-2,1.950000064E-3,9.834000587E0
3.636237883E0,-1.995000057E-2,0.000000000E0,9.858000755E0
3.638738270E0,-1.005000062E-2,3.105000220E-2,9.846000671E0
3.641238883E0,-3.405000269E-2,3.105000220E-2,9.838950157E0
3.643739424E0,-7.695000619E-2,5.295000225E-2,9.832050323E0
3.646239808E0,-1.489500105E-1,4.095000029E-2,9.850950241E0
3.648740422E0,-1.489500105E-1,4.800000042E-2,9.865050316E0
3.651240962E0,-1.180500090E-1,4.305000231E-2,9.868050575E0
3.653741347E0,-1.489500105E-1,2.400000021E-2,9.847950935E0
3.656241883E0,-1.950000077E-1,2.595000155E-2,9.858000755E0
3.658742499E0,-2.040000111E-1,2.595000155E-2,9.858000755E0
3.661242885E0,-1.950000077E-1,1.395000052E-2,9.850950241E0
3.663743422E0,-1.319999993E-1,0.000000000E0,9.858000755E0
3.666243809E0,-1.469999999E-1,-2.805000171E-2,9.862950325E0
3.668744403E0,-1.710000038E-1,-6.405000389E-2,9.841050148E0
3.671244943E0,-1.680000126E-1,-5.700000376E-2,9.870000839E0
3.673745328E0,-1.390500069E-1,-6.795000285E-2,9.868050575E0
3.676245864E0,-9.900000691E-2,-7.304999977E-2,9.862950325E0
3.678746480E0,-8.895000070E-2,-7.095000148E-2,9.841050148E0
3.681246852E0,-1.159500033E-1,-7.605000585E-2,9.847950935E0
3.683747389E0,-1.390500069E-1,-7.605000585E-2,9.844050407E0
3.686247776E0,-1.039500013E-1,-6.599999964E-2,9.853050232E0
3.688748312E0,-4.905000329E-2,-5.700000376E-2,9.844050407E0
3.691248951E0,-5.100000277E-2,-4.500000179E-2,9.834000587E0
3.693749338E0,-9.405000508E-2,-2.505000122E-2,9.853050232E0
3.696249875E0,-9.195000678E-2,-2.100000158E-2,9.853050232E0
3.698750261E0,-6.795000285E-2,0.000000000E0,9.847950935E0
3.701250889E0,-2.895000204E-2,1.005000062E-2,9.853050232E0
3.703751429E0,-1.305000018E-2,2.595000155E-2,9.846000671E0
3.706251814E0,-2.205000073E-2,2.205000073E-2,9.834000587E0
3.708752350E0,-5.100000277E-2,3.105000220E-2,9.859950066E0
3.711252984E0,-1.305000018E-2,6.705000252E-2,9.846000671E0
3.713753371E0,3.900000080E-2,6.705000252E-2,9.846000671E0
3.716253908E0,6.105000153E-2,7.395000011E-2,9.838950157E0
3.718754294E0,3.900000080E-2,7.200000435E-2,9.826950073E0
3.721254898E0,6.000000052E-3,9.600000083E-2,9.847950935E0
3.723755438E0,3.000000119E-2,1.050000042E-1,9.835950851E0
3.726255823E0,4.395000264E-2,1.050000042E-1,9.838950157E0
3.728756436E0,6.495000422E-2,9.600000083E-2,9.829050064E0
3.731256963E0,2.505000122E-2,9.105000645E-2,9.841050148E0
3.733757347E0,-1.005000062E-2,1.290000081E-1,9.846000671E0
3.736257884E0,6.000000052E-3,1.319999993E-1,9.853050232E0
3.738758499E0,2.700000070E-2,1.050000042E-1,9.847950935E0
3.741258891E0,3.900000080E-2,7.905000448E-2,9.841050148E0
3.743759427E0,1.800000109E-2,4.800000042E-2,9.844050407E0
3.746259814E0,-1.050000079E-3,5.700000376E-2,9.835950851E0
3.748760427E0,1.500000060E-2,7.395000011E-2,9.856050491E0
3.751260737E0,7.005000114E-2,6.900000572E-2,9.834000587E0
3.753761345E0,7.695000619E-2,3.299999982E-2,9.829050064E0
3.756261884E0,4.095000029E-2,-4.050000105E-3,9.825000763E0
3.758762270E0,1.995000057E-2,4.950000439E-3,9.846000671E0
3.761262807E0,3.000000119E-2,3.299999982E-2,9.856050491E0
3.763763432E0,9.195000678E-2,1.395000052E-2,9.847950935E0
3.766263819E0,8.700000495E-2,-1.050000079E-3,9.846000671E0
3.768764355E0,5.100000277E-2,-2.295000106E-2,9.834000587E0
3.771264971E0,3.900000080E-2,1.005000062E-2,9.829050064E0
3.773765342E0,5.100000277E-2,3.105000220E-2,9.846000671E0
3.776265879E0,7.304999977E-2,3.105000220E-2,9.847950935E0
3.778766265E0,5.100000277E-2,-1.050000079E-3,9.834000587E0
3.781266879E0,1.305000018E-2,4.950000439E-3,9.829050064E0
3.783767419E0,-1.695000008E-2,1.905000024E-2,9.846000671E0
3.786267818E0,-2.700000070E-2,4.500000179E-2,9.871950150E0
3.788768354E0,6.000000052E-3,4.095000029E-2,9.832050323E0
3.791268970E0,6.000000052E-3,-1.050000079E-3,9.834000587E0
3.793769356E0,-4.095000029E-2,1.950000064E-3,9.856050491E0
3.796269927E0,-8.400000632E-2,3.105000220E-2,9.838950157E0
3.798770542E0,-9.600000083E-2,6.495000422E-2,9.844050407E0
3.801270929E0,-8.700000495E-2,6.900000572E-2,9.853050232E0
3.803771465E0,-5.805000290E-2,4.095000029E-2,9.838950157E0
3.806271866E0,-8.205000311E-2,3.600000218E-2,9.856050491E0
3.808772479E0,-8.400000632E-2,2.895000204E-2,9.844050407E0
3.811273020E0,-7.200000435E-2,2.595000155E-2,9.858000755E0
3.813773404E0,-1.995000057E-2,2.400000021E-2,9.859950066E0
3.816273936E0,3.000000026E-3,1.950000064E-3,9.834000587E0
3.818774551E0,-7.950000465E-3,1.950000064E-3,9.853050232E0
3.821274938E0,-1.050000079E-3,1.395000052E-2,9.847950935E0
3.823775474E0,1.305000018E-2,3.299999982E-2,9.850950241E0
3.826275866E0,3.705000132E-2,3.795000166E-2,9.826950073E0
3.828776479E0,6.300000101E-2,2.595000155E-2,9.838950157E0
3.831277020E0,3.195000067E-2,3.299999982E-2,9.865050316E0
3.833777404E0,1.305000018E-2,6.495000422E-2,9.859950066E0
3.836277970E0,1.800000109E-2,1.050000042E-1,9.829050064E0
3.838778356E0,7.995000482E-2,7.395000011E-2,9.838950157E0
3.841278970E0,9.195000678E-2,5.505000427E-2,9.822000504E0
3.843779510E0,7.695000619E-2,6.705000252E-2,9.826950073E0
3.846279881E0,5.295000225E-2,6.495000422E-2,9.838950157E0
3.848780417E0,6.795000285E-2,8.595000207E-2,9.853050232E0
3.851281033E0,9.900000691E-2,8.595000207E-2,9.835950851E0
3.853781419E0,1.279500127E-1,7.905000448E-2,9.826950073E0
3.856281932E0,8.895000070E-2,7.395000011E-2,9.825000763E0
3.858782319E0,8.205000311E-2,1.120500043E-1,9.846000671E0
3.861282932E0,7.995000482E-2,1.410000026E-1,9.844050407E0
3.863783472E0,9.195000678E-2,1.339500099E-1,9.841050148E0
3.866283842E0,1.039500013E-1,1.030500084E-1,9.829050064E0
3.868784378E0,6.795000285E-2,9.300000221E-2,9.832050323E0
3.871284994E0,1.500000060E-2,1.170000061E-1,9.832050323E0
3.873785380E0,-1.050000079E-3,1.410000026E-1,9.847950935E0
3.876285917E0,4.905000329E-2,1.170000061E-1,9.847950935E0
3.878786532E0,2.505000122E-2,7.695000619E-2,9.838950157E0
3.881286919E0,1.005000062E-2,5.295000225E-2,9.858000755E0
3.883787455E0,-3.705000132E-2,6.900000572E-2,9.853050232E0
3.886287842E0,-4.395000264E-2,1.009500027E-1,9.859950066E0
3.888788460E0,-2.895000204E-2,9.600000083E-2,9.846000671E0
3.891289001E0,-3.195000067E-2,6.195000187E-2,9.832050323E0
3.893789386E0,-5.805000290E-2,3.600000218E-2,9.850950241E0
3.896289922E0,-7.995000482E-2,4.095000029E-2,9.862950325E0
3.898790547E0,-7.005000114E-2,4.995000362E-2,9.865050316E0
3.901290934E0,-7.200000435E-2,5.295000225E-2,9.856050491E0
3.903791470E0,-4.905000329E-2,7.050000131E-3,9.841050148E0
3.906291857E0,-7.695000619E-2,-4.050000105E-3,9.841050148E0
3.908792474E0,-9.195000678E-2,-1.305000018E-2,9.844050407E0
3.911293015E0,-7.200000435E-2,0.000000000E0,9.856050491E0
3.913793400E0,-4.605000094E-2,-1.800000109E-2,9.850950241E0
3.916293936E0,-5.595000088E-2,-3.495000303E-2,9.850950241E0
3.918794542E0,-8.205000311E-2,-3.495000303E-2,9.846000671E0
3.921294929E0,-1.129500046E-1,-2.505000122E-2,9.856050491E0
3.923795466E0,-8.400000632E-2,-9.000000544E-3,9.847950935E0
3.926295852E0,-7.200000435E-2,4.950000439E-3,9.835950851E0
3.928796389E0,-5.295000225E-2,-1.605000161E-2,9.847950935E0
3.931296989E0,-6.300000101E-2,-2.805000171E-2,9.856050491E0
3.933797376E0,-9.405000508E-2,-1.095000096E-2,9.868050575E0
3.936297912E0,-8.205000311E-2,-9.000000544E-3,9.880050659E0
3.938798299E0,-7.005000114E-2,-1.095000096E-2,9.844050407E0
3.941298917E0,-6.795000285E-2,-2.805000171E-2,9.826950073E0
3.943799458E0,-1.060500070E-1,-2.100000158E-2,9.835950851E0
3.946299842E0,-1.279500127E-1,-1.800000109E-2,9.880050659E0
3.948800456E0,-1.159500033E-1,4.095000029E-2,9.877050400E0
3.951300996E0,-8.700000495E-2,1.695000008E-2,9.859950066E0
3.953801381E0,-1.080000028E-1,1.695000008E-2,9.841050148E0
3.956301917E0,-1.319999993E-1,3.600000218E-2,9.850950241E0
3.958802533E0,-1.560000032E-1,4.995000362E-2,9.858000755E0
3.961302919E0,-1.180500090E-1,5.505000427E-2,9.846000671E0
3.963803422E0,-5.805000290E-2,4.500000179E-2,9.844050407E0
3.966303808E0,-1.695000008E-2,2.595000155E-2,9.834000587E0
3.968804422E0,-5.100000277E-2,3.600000218E-2,9.846000671E0
3.971304962E0,-5.295000225E-2,5.295000225E-2,9.859950066E0
3.973805338E0,-7.950000465E-3,7.200000435E-2,9.856050491E0
3.976305874E0,5.100000277E-2,7.395000011E-2,9.829050064E0
3.978806490E0,7.005000114E-2,9.105000645E-2,9.822000504E0
3.981306799E0,6.300000101E-2,1.200000048E-1,9.844050407E0
3.983807413E0,6.300000101E-2,1.270500124E-1,9.871950150E0
3.986307799E0,9.405000508E-2,1.579500139E-1,9.870000839E0
3.988808413E0,1.489500105E-1,1.579500139E-1,9.844050407E0
3.991308953E0,1.249500066E-1,1.459500045E-1,9.826950073E0
3.993809353E0,8.205000311E-2,1.510500014E-1,9.814950943E0
3.996309889E0,6.795000285E-2,1.819500029E-1,9.822000504E0
3.998810276E0,9.195000678E-2,1.840500087E-1,9.850950241E0
4.001310889E0,1.249500066E-1,1.699500084E-1,9.841050148E0
4.003811430E0,1.420500129E-1,1.270500124E-1,9.844050407E0
4.006311800E0,1.039500013E-1,1.510500014E-1,9.834000587E0
4.008812337E0,6.795000285E-2,1.339500099E-1,9.844050407E0
4.011312952E0,6.495000422E-2,1.319999993E-1,9.838950157E0
4.013813339E0,1.159500033E-1,1.319999993E-1,9.825000763E0
4.016313894E0,1.060500070E-1,1.030500084E-1,9.834000587E0
4.018814281E0,6.495000422E-2,8.100000024E-2,9.838950157E0
4.021314894E0,3.195000067E-2,8.100000024E-2,9.859950066E0
4.023815435E0,2.505000122E-2,8.895000070E-2,9.874950409E0
4.026315853E0,4.395000264E-2,5.700000376E-2,9.859950066E0
4.028816467E0,5.295000225E-2,4.800000042E-2,9.834000587E0
4.031317007E0,6.000000052E-3,3.105000220E-2,9.822000504E0
4.033817392E0,-1.500000060E-2,3.299999982E-2,9.835950851E0
4.036317942E0,-4.950000439E-3,2.595000155E-2,9.841050148E0
4.038818558E0,3.195000067E-2,1.695000008E-2,9.841050148E0
4.041318944E0,4.905000329E-2,-4.050000105E-3,9.841050148E0
4.043819481E0,-4.950000439E-3,2.400000021E-2,9.856050491E0
4.046319867E0,-5.805000290E-2,2.400000021E-2,9.850950241E0
4.048820476E0,-3.405000269E-2,3.105000220E-2,9.853050232E0
4.051321016E0,3.900000080E-2,3.105000220E-2,9.838950157E0
4.053821401E0,4.605000094E-2,3.105000220E-2,9.844050407E0
4.056321937E0,1.800000109E-2,3.105000220E-2,9.853050232E0
4.058822324E0,-1.050000079E-3,4.095000029E-2,9.862950325E0
4.061322937E0,3.705000132E-2,4.995000362E-2,9.846000671E0
4.063823478E0,8.505000174E-2,3.795000166E-2,9.825000763E0
4.066323862E0,1.230000034E-1,4.095000029E-2,9.826950073E0
4.068824404E0,1.039500013E-1,5.505000427E-2,9.835950851E0
4.071325019E0,6.795000285E-2,6.195000187E-2,9.853050232E0
4.073825406E0,9.195000678E-2,6.195000187E-2,9.868050575E0
4.076325942E0,1.440000087E-1,3.299999982E-2,9.847950935E0
4.078826329E0,1.469999999E-1,1.950000064E-3,9.825000763E0
4.081326942E0,1.090500057E-1,7.050000131E-3,9.832050323E0
4.083827483E0,6.495000422E-2,3.105000220E-2,9.847950935E0
4.086327868E0,6.495000422E-2,4.950000439E-3,9.838950157E0
4.088828404E0,1.230000034E-1,-4.050000105E-3,9.825000763E0
4.091329034E0,1.279500127E-1,7.050000131E-3,9.829050064E0
4.093829421E0,9.900000691E-2,3.299999982E-2,9.846000671E0
4.096329957E0,2.505000122E-2,4.305000231E-2,9.841050148E0
4.098830344E0,1.995000057E-2,4.995000362E-2,9.847950935E0
4.101330976E0,5.595000088E-2,4.095000029E-2,9.826950073E0
4.103831517E0,9.195000678E-2,5.505000427E-2,9.825000763E0
4.106331902E0,7.005000114E-2,8.895000070E-2,9.826950073E0
4.108832515E0,1.305000018E-2,8.400000632E-2,9.868050575E0
4.111333050E0,7.950000465E-3,6.495000422E-2,9.846000671E0
4.113833435E0,8.700000495E-2,4.800000042E-2,9.835950851E0
4.116333972E0,7.005000114E-2,5.505000427E-2,9.835950851E0
4.118834587E0,5.295000225E-2,7.395000011E-2,9.844050407E0
4.121334988E0,2.505000122E-2,8.100000024E-2,9.846000671E0
4.123835524E0,3.000000026E-3,7.395000011E-2,9.858000755E0
4.126335911E0,4.605000094E-2,6.705000252E-2,9.838950157E0
4.128836524E0,6.300000101E-2,6.705000252E-2,9.829050064E0
4.131337083E0,4.095000029E-2,8.595000207E-2,9.838950157E0
4.133837468E0,-1.050000079E-3,9.105000645E-2,9.853050232E0
4.136338005E0,-5.100000277E-2,8.895000070E-2,9.847950935E0
4.138838620E0,-7.950000465E-3,6.705000252E-2,9.832050323E0
4.141339007E0,2.505000122E-2,6.900000572E-2,9.844050407E0
4.143839563E0,-1.050000079E-3,8.595000207E-2,9.846000671E0
4.146340178E0,-5.595000088E-2,8.895000070E-2,9.844050407E0
4.148840488E0,-7.200000435E-2,4.800000042E-2,9.859950066E0
4.151340873E0,-5.805000290E-2,3.299999982E-2,9.846000671E0
4.153841500E0,-4.905000329E-2,4.500000179E-2,9.826950073E0
4.156342039E0,-5.100000277E-2,5.295000225E-2,9.841050148E0
4.158842425E0,-9.405000508E-2,4.305000231E-2,9.859950066E0
4.161343039E0,-8.400000632E-2,1.395000052E-2,9.846000671E0
4.163843564E0,-7.500000298E-2,-4.050000105E-3,9.846000671E0
4.166343949E0,-4.095000029E-2,1.950000064E-3,9.874950409E0
4.168844485E0,-6.495000422E-2,7.050000131E-3,9.853050232E0
4.171345101E0,-1.319999993E-1,1.200000010E-2,9.841050148E0
4.173845491E0,-1.279500127E-1,-1.800000109E-2,9.877050400E0
4.176346028E0,-1.110000089E-1,-2.805000171E-2,9.853050232E0
4.178846414E0,-5.805000290E-2,-9.000000544E-3,9.834000587E0
4.181347028E0,-8.205000311E-2,-6.000000052E-3,9.846000671E0
4.183847573E0,-1.230000034E-1,1.005000062E-2,9.871950150E0
4.186347958E0,-1.180500090E-1,0.000000000E0,9.856050491E0
4.188848571E0,-1.129500046E-1,4.950000439E-3,9.832050323E0
4.191349112E0,-5.295000225E-2,2.895000204E-2,9.838950157E0
4.193849482E0,-3.705000132E-2,5.295000225E-2,9.856050491E0
4.196350019E0,-4.395000264E-2,6.900000572E-2,9.850950241E0
4.198850634E0,-1.500000060E-2,4.500000179E-2,9.859950066E0
4.201351021E0,3.405000269E-2,3.299999982E-2,9.846000671E0
4.203851557E0,8.895000070E-2,1.395000052E-2,9.838950157E0
4.206351944E0,1.060500070E-1,3.299999982E-2,9.841050148E0
4.208852557E0,8.505000174E-2,4.800000042E-2,9.832050323E0
4.211353098E0,1.350000054E-1,1.005000062E-2,9.832050323E0
4.213853482E0,1.609500051E-1,-9.000000544E-3,9.841050148E0
4.216354028E0,1.950000077E-1,7.050000131E-3,9.838950157E0
4.218854643E0,2.070000172E-1,-9.000000544E-3,9.862950325E0
4.221355030E0,1.879500151E-1,-2.805000171E-2,9.862950325E0
4.223855566E0,1.849500090E-1,-5.400000140E-2,9.834000587E0
4.226356187E0,1.849500090E-1,-3.000000119E-2,9.825000763E0
4.228856496E0,2.110500038E-1,-2.805000171E-2,9.820050240E0
4.231357110E0,2.070000172E-1,1.950000064E-3,9.844050407E0
4.233857496E0,1.800000072E-1,1.950000064E-3,9.847950935E0
4.236358033E0,1.560000032E-1,-1.305000018E-2,9.859950066E0
4.238858424E0,1.519500017E-1,0.000000000E0,9.847950935E0
4.241359038E0,1.319999993E-1,7.050000131E-3,9.826950073E0
4.243859578E0,1.090500057E-1,4.305000231E-2,9.841050148E0
4.246359963E0,7.995000482E-2,2.595000155E-2,9.835950851E0
4.248860499E0,7.005000114E-2,1.395000052E-2,9.856050491E0
4.251361110E0,7.995000482E-2,-2.295000106E-2,9.838950157E0
4.253861496E0,7.500000298E-2,-4.050000105E-3,9.835950851E0
4.256362033E0,5.295000225E-2,-4.050000105E-3,9.856050491E0
4.258862419E0,7.950000465E-3,-1.605000161E-2,9.844050407E0
4.261363033E0,-1.005000062E-2,-2.295000106E-2,9.850950241E0
4.263863573E0,-2.700000070E-2,-2.505000122E-2,9.844050407E0
4.266363958E0,-1.500000060E-2,-2.505000122E-2,9.829050064E0
4.268864571E0,-2.895000204E-2,-2.505000122E-2,9.853050232E0
4.271365112E0,-5.595000088E-2,-1.050000079E-3,9.850950241E0
4.273865482E0,-8.400000632E-2,-3.299999982E-2,9.847950935E0
4.276366019E0,-9.195000678E-2,-1.800000109E-2,9.825000763E0
4.278866634E0,-1.159500033E-1,-1.050000079E-3,9.832050323E0
4.281367021E0,-1.319999993E-1,1.905000024E-2,9.846000671E0
4.283867571E0,-1.489500105E-1,2.895000204E-2,9.858000755E0
4.286367958E0,-1.540500075E-1,4.095000029E-2,9.847950935E0
4.288868571E0,-1.440000087E-1,3.600000218E-2,9.853050232E0
4.291369112E0,-1.560000032E-1,4.305000231E-2,9.844050407E0
4.293869496E0,-1.710000038E-1,7.395000011E-2,9.844050407E0
4.296370033E0,-1.920000017E-1,7.695000619E-2,9.847950935E0
4.298870420E0,-1.750500053E-1,6.000000238E-2,9.847950935E0
4.301371033E0,-1.390500069E-1,6.495000422E-2,9.844050407E0
4.303871573E0,-8.895000070E-2,6.495000422E-2,9.826950073E0
4.306371958E0,-8.895000070E-2,7.905000448E-2,9.850950241E0
4.308872495E0,-9.405000508E-2,7.395000011E-2,9.847950935E0
4.311373110E0,-7.200000435E-2,5.505000427E-2,9.853050232E0
4.313873492E0,-5.100000277E-2,5.700000376E-2,9.834000587E0
4.316374028E0,-4.395000264E-2,6.900000572E-2,9.841050148E0
4.318874415E0,-5.295000225E-2,9.795000404E-2,9.850950241E0
4.321375028E0,-6.495000422E-2,1.150500029E-1,9.862950325E0
4.323875573E0,-4.605000094E-2,1.200000048E-1,9.856050491E0
4.326375958E0,-2.205000073E-2,1.099500060E-1,9.834000587E0
4.328876495E0,-4.950000439E-3,1.200000048E-1,9.832050323E0
4.331377110E0,-2.205000073E-2,1.290000081E-1,9.834000587E0
4.333877497E0,-7.950000465E-3,1.099500060E-1,9.835950851E0
4.336378033E0,1.305000018E-2,1.120500043E-1,9.835950851E0
4.338878420E0,5.595000088E-2,9.105000645E-2,9.826950073E0
4.341379033E0,6.795000285E-2,9.600000083E-2,9.844050407E0
4.343879574E0,5.595000088E-2,8.100000024E-2,9.838950157E0
4.346379943E0,2.700000070E-2,8.100000024E-2,9.829050064E0
4.348880557E0,5.100000277E-2,7.395000011E-2,9.834000587E0
4.351381097E0,4.905000329E-2,5.295000225E-2,9.838950157E0
4.353881482E0,7.995000482E-2,4.800000042E-2,9.832050323E0
4.356382023E0,6.105000153E-2,3.795000166E-2,9.846000671E0
4.358882638E0,3.900000080E-2,3.105000220E-2,9.874950409E0
4.361383025E0,6.795000285E-2,7.050000131E-3,9.838950157E0
4.363883562E0,8.205000311E-2,7.050000131E-3,9.841050148E0
4.366383919E0,7.500000298E-2,1.005000062E-2,9.834000587E0
4.368884533E0,4.395000264E-2,-1.095000096E-2,9.841050148E0
4.371385073E0,3.900000080E-2,-1.605000161E-2,9.838950157E0
4.373885458E0,6.495000422E-2,-2.805000171E-2,9.850950241E0
4.376385994E0,8.700000495E-2,-6.000000052E-3,9.846000671E0
4.378886610E0,7.995000482E-2,1.005000062E-2,9.847950935E0
4.381386996E0,3.705000132E-2,-4.050000105E-3,9.835950851E0
4.383887533E0,7.950000465E-3,-6.000000052E-3,9.858000755E0
4.386387924E0,2.700000070E-2,-1.095000096E-2,9.844050407E0
4.388888461E0,3.405000269E-2,-2.100000158E-2,9.847950935E0
4.391389076E0,2.205000073E-2,-1.050000079E-3,9.832050323E0
4.393889463E0,-3.000000026E-3,-1.095000096E-2,9.844050407E0
4.396389994E0,-3.705000132E-2,-4.050000105E-3,9.850950241E0
4.398890381E0,-1.995000057E-2,7.050000131E-3,9.850950241E0
4.401390994E0,3.900000080E-2,1.200000010E-2,9.817050934E0
4.403891535E0,7.950000465E-3,1.005000062E-2,9.835950851E0
4.406391919E0,-4.950000439E-3,2.205000073E-2,9.835950851E0
4.408892442E0,-1.005000062E-2,4.095000029E-2,9.850950241E0
4.411393057E0,1.500000060E-2,3.299999982E-2,9.862950325E0
4.413893444E0,6.795000285E-2,4.095000029E-2,9.834000587E0
4.416393980E0,4.905000329E-2,3.795000166E-2,9.835950851E0
4.418894596E0,6.000000052E-3,5.700000376E-2,9.850950241E0
4.421394972E0,-3.900000080E-2,6.000000238E-2,9.853050232E0
4.423895509E0,-3.195000067E-2,8.400000632E-2,9.865050316E0
4.426395895E0,-3.000000026E-3,8.895000070E-2,9.841050148E0
4.428896509E0,-1.305000018E-2,1.080000028E-1,9.847950935E0
4.431397030E0,-5.100000277E-2,8.100000024E-2,9.858000755E0
4.433897415E0,-9.405000508E-2,9.795000404E-2,9.859950066E0
4.436397951E0,-8.205000311E-2,8.400000632E-2,9.853050232E0
4.438898567E0,-5.100000277E-2,7.905000448E-2,9.846000671E0
4.441398963E0,-4.095000029E-2,8.100000024E-2,9.838950157E0
4.443899500E0,-6.300000101E-2,6.195000187E-2,9.850950241E0
4.446399886E0,-7.005000114E-2,6.195000187E-2,9.850950241E0
4.448900500E0,-4.905000329E-2,6.705000252E-2,9.856050491E0
4.451401035E0,7.950000465E-3,8.100000024E-2,9.847950935E0
4.453901420E0,3.405000269E-2,6.195000187E-2,9.844050407E0
4.456402033E0,3.000000026E-3,5.505000427E-2,9.844050407E0
4.458902574E0,-1.500000060E-2,5.295000225E-2,9.850950241E0
4.461402958E0,1.995000057E-2,4.800000042E-2,9.870000839E0
4.463903495E0,7.005000114E-2,3.795000166E-2,9.856050491E0
4.466404110E0,7.995000482E-2,3.795000166E-2,9.858000755E0
4.468904420E0,5.805000290E-2,7.050000131E-3,9.834000587E0
4.471405042E0,1.800000109E-2,7.050000131E-3,9.838950157E0
4.473905429E0,1.500000060E-2,1.200000010E-2,9.853050232E0
4.476405965E0,7.005000114E-2,2.595000155E-2,9.835950851E0
4.478906352E0,8.205000311E-2,1.695000008E-2,9.847950935E0
4.481406946E0,4.095000029E-2,-1.095000096E-2,9.865050316E0
4.483907487E0,3.195000067E-2,3.795000166E-2,9.858000755E0
4.486407871E0,3.000000119E-2,2.205000073E-2,9.846000671E0
4.488908485E0,6.795000285E-2,4.095000029E-2,9.841050148E0
4.491409025E0,8.895000070E-2,4.500000179E-2,9.832050323E0
4.493909405E0,5.595000088E-2,3.600000218E-2,9.832050323E0
4.496409941E0,3.705000132E-2,2.205000073E-2,9.834000587E0
4.498910557E0,5.595000088E-2,5.295000225E-2,9.859950066E0
4.501410943E0,7.695000619E-2,7.695000619E-2,9.862950325E0
4.503911491E0,9.705000371E-2,5.295000225E-2,9.847950935E0
4.506411878E0,6.105000153E-2,4.305000231E-2,9.853050232E0
4.508912491E0,1.050000079E-3,3.795000166E-2,9.844050407E0
4.511413031E0,1.005000062E-2,6.000000238E-2,9.838950157E0
4.513913421E0,1.995000057E-2,6.495000422E-2,9.841050148E0
4.516413957E0,3.195000067E-2,5.505000427E-2,9.835950851E0
4.518914573E0,-4.950000439E-3,3.299999982E-2,9.844050407E0
4.521414959E0,-5.595000088E-2,3.299999982E-2,9.856050491E0
4.523915496E0,-7.995000482E-2,4.800000042E-2,9.856050491E0
4.526415868E0,-7.005000114E-2,3.600000218E-2,9.858000755E0
4.528916481E0,-6.300000101E-2,1.905000024E-2,9.832050323E0
4.531417021E0,-9.600000083E-2,2.595000155E-2,9.846000671E0
4.533917406E0,-1.300500035E-1,-9.000000544E-3,9.865050316E0
4.536418024E0,-1.369500011E-1,1.695000008E-2,9.859950066E0
4.538918334E0,-8.400000632E-2,1.695000008E-2,9.853050232E0
4.541418948E0,-7.005000114E-2,-2.295000106E-2,9.841050148E0
4.543919486E0,-7.500000298E-2,-3.495000303E-2,9.846000671E0
4.546419858E0,-9.405000508E-2,-4.200000316E-2,9.847950935E0
4.548920394E0,-9.405000508E-2,-2.505000122E-2,9.858000755E0
4.551421009E0,-4.905000329E-2,-2.805000171E-2,9.846000671E0
4.553921396E0,-1.305000018E-2,-4.500000179E-2,9.846000671E0
4.556421914E0,-1.305000018E-2,-4.500000179E-2,9.847950935E0
4.558922300E0,-3.405000269E-2,-5.700000376E-2,9.841050148E0
4.561422914E0,-5.595000088E-2,-3.299999982E-2,9.835950851E0
4.563923454E0,-3.000000026E-3,1.905000024E-2,9.835950851E0
4.566423839E0,6.000000052E-3,-1.095000096E-2,9.829050064E0
4.568924452E0,-1.995000057E-2,-6.000000052E-3,9.829050064E0
4.571424993E0,-4.395000264E-2,4.950000439E-3,9.834000587E0
4.573925377E0,-2.895000204E-2,4.800000042E-2,9.858000755E0
4.576425914E0,3.000000026E-3,7.905000448E-2,9.825000763E0
4.578926534E0,1.500000060E-2,7.395000011E-2,9.826950073E0
4.581426921E0,1.995000057E-2,7.200000435E-2,9.820050240E0
4.583927457E0,6.000000052E-3,6.000000238E-2,9.835950851E0
4.586427844E0,1.305000018E-2,1.030500084E-1,9.832050323E0
4.588928490E0,5.295000225E-2,1.290000081E-1,9.853050232E0
4.591429031E0,8.700000495E-2,1.080000028E-1,9.835950851E0
4.593929415E0,5.805000290E-2,1.050000042E-1,9.844050407E0
4.596429952E0,6.495000422E-2,1.080000028E-1,9.826950073E0
4.598930567E0,7.500000298E-2,1.120500043E-1,9.846000671E0
4.601430959E0,1.110000089E-1,1.339500099E-1,9.844050407E0
4.603931495E0,1.590000093E-1,1.270500124E-1,9.825000763E0
4.606432111E0,1.440000087E-1,1.270500124E-1,9.838950157E0
4.608932497E0,1.300500035E-1,1.200000048E-1,9.853050232E0
4.611433034E0,1.319999993E-1,1.150500029E-1,9.834000587E0
4.613933420E0,1.710000038E-1,1.290000081E-1,9.835950851E0
4.616434034E0,1.849500090E-1,1.009500027E-1,9.820050240E0
4.618934574E0,1.759500057E-1,8.895000070E-2,9.808050156E0
4.621434940E0,1.540500075E-1,6.195000187E-2,9.826950073E0
4.623935476E0,1.469999999E-1,6.900000572E-2,9.853050232E0
4.626435863E0,1.489500105E-1,7.395000011E-2,9.838950157E0
4.628936399E0,1.609500051E-1,7.395000011E-2,9.844050407E0
4.631436986E0,1.300500035E-1,5.295000225E-2,9.820050240E0
4.633937372E0,8.700000495E-2,4.995000362E-2,9.832050323E0
4.636437909E0,8.895000070E-2,8.400000632E-2,9.841050148E0
4.638938295E0,1.159500033E-1,8.595000207E-2,9.846000671E0
4.641438890E0,1.279500127E-1,8.595000207E-2,9.829050064E0
4.643939430E0,9.900000691E-2,7.905000448E-2,9.841050148E0
4.646439815E0,8.895000070E-2,7.905000448E-2,9.846000671E0
4.648940428E0,8.895000070E-2,1.009500027E-1,9.850950241E0
4.651440973E0,1.110000089E-1,1.030500084E-1,9.841050148E0
4.653941357E0,1.090500057E-1,9.300000221E-2,9.838950157E0
4.656441894E0,8.895000070E-2,7.695000619E-2,9.825000763E0
4.658942509E0,5.595000088E-2,7.200000435E-2,9.847950935E0
4.661442896E0,6.495000422E-2,7.395000011E-2,9.850950241E0
4.663943423E0,8.505000174E-2,4.995000362E-2,9.850950241E0
4.666443810E0,8.895000070E-2,4.995000362E-2,9.838950157E0
4.668944423E0,6.105000153E-2,3.299999982E-2,9.838950157E0
4.671444964E0,3.195000067E-2,3.600000218E-2,9.846000671E0
4.673945343E0,3.705000132E-2,3.105000220E-2,9.865050316E0
4.676445880E0,5.100000277E-2,5.505000427E-2,9.841050148E0
4.678946495E0,6.300000101E-2,5.505000427E-2,9.858000755E0
4.681446882E0,6.795000285E-2,2.895000204E-2,9.838950157E0
4.683947408E0,1.995000057E-2,3.105000220E-2,9.847950935E0
4.686448024E0,1.500000060E-2,6.000000238E-2,9.850950241E0
4.688948410E0,3.900000080E-2,6.705000252E-2,9.838950157E0
4.691448947E0,3.195000067E-2,6.900000572E-2,9.834000587E0
4.693949328E0,1.800000109E-2,6.900000572E-2,9.835950851E0
4.696449942E0,6.000000052E-3,9.300000221E-2,9.841050148E0
4.698950252E0,-3.000000026E-3,1.099500060E-1,9.858000755E0
4.701450865E0,7.950000465E-3,1.099500060E-1,9.844050407E0
4.703951423E0,1.995000057E-2,1.170000061E-1,9.847950935E0
4.706452039E0,-1.305000018E-2,8.100000024E-2,9.844050407E0
4.708952348E0,-4.095000029E-2,4.995000362E-2,9.846000671E0
4.711452962E0,-3.705000132E-2,8.100000024E-2,9.853050232E0
4.713953348E0,-2.895000204E-2,6.000000238E-2,9.847950935E0
4.716453890E0,-1.500000060E-2,6.000000238E-2,9.850950241E0
4.718954505E0,-3.705000132E-2,1.695000008E-2,9.850950241E0
4.721454892E0,-7.695000619E-2,0.000000000E0,9.862950325E0
4.723955428E0,-8.895000070E-2,1.950000064E-3,9.853050232E0
4.726455805E0,-6.000000238E-2,1.905000024E-2,9.846000671E0
4.728956418E0,-6.300000101E-2,7.050000131E-3,9.841050148E0
4.731456959E0,-9.405000508E-2,-1.050000079E-3,9.847950935E0
4.733957344E0,-1.200000048E-1,-1.050000079E-3,9.846000671E0
4.736457880E0,-1.060500070E-1,-1.095000096E-2,9.847950935E0
4.738958495E0,-6.000000238E-2,-2.100000158E-2,9.853050232E0
4.741458882E0,-3.195000067E-2,-1.050000079E-3,9.838950157E0
4.743959418E0,-5.805000290E-2,2.895000204E-2,9.846000671E0
4.746459805E0,-5.595000088E-2,2.595000155E-2,9.850950241E0
4.748960427E0,-2.700000070E-2,4.305000231E-2,9.856050491E0
4.751460968E0,7.950000465E-3,5.700000376E-2,9.844050407E0
4.753961353E0,2.505000122E-2,6.000000238E-2,9.846000671E0
4.756461966E0,1.500000060E-2,7.695000619E-2,9.844050407E0
4.758962482E0,-1.995000057E-2,7.200000435E-2,9.844050407E0
4.761462867E0,-2.700000070E-2,9.795000404E-2,9.856050491E0
4.763963404E0,1.305000018E-2,6.705000252E-2,9.846000671E0
4.766464019E0,7.950000465E-3,8.100000024E-2,9.841050148E0
4.768964411E0,-1.695000008E-2,7.695000619E-2,9.841050148E0
4.771464947E0,-4.605000094E-2,8.400000632E-2,9.856050491E0
4.773965334E0,-5.100000277E-2,6.195000187E-2,9.865050316E0
4.776465870E0,-4.095000029E-2,5.505000427E-2,9.847950935E0
4.778966257E0,-3.405000269E-2,2.205000073E-2,9.856050491E0
4.781466870E0,-7.200000435E-2,2.400000021E-2,9.835950851E0
4.783967411E0,-9.195000678E-2,3.299999982E-2,9.847950935E0
4.786467795E0,-1.159500033E-1,1.905000024E-2,9.859950066E0
4.788968409E0,-6.795000285E-2,7.050000131E-3,9.847950935E0
4.791468959E0,-4.395000264E-2,4.950000439E-3,9.858000755E0
4.793969344E0,-4.605000094E-2,-9.000000544E-3,9.846000671E0
4.796469880E0,-7.500000298E-2,0.000000000E0,9.859950066E0
4.798970496E0,-7.200000435E-2,0.000000000E0,9.846000671E0
4.801470882E0,-4.095000029E-2,1.950000064E-3,9.846000671E0
4.803971419E0,3.000000026E-3,-1.605000161E-2,9.841050148E0
4.806471805E0,-3.000000026E-3,-6.000000052E-3,9.841050148E0
4.808972419E0,-3.705000132E-2,-4.050000105E-3,9.856050491E0
4.811472964E0,-3.705000132E-2,-2.805000171E-2,9.856050491E0
4.813973349E0,1.800000109E-2,-2.295000106E-2,9.844050407E0
4.816473885E0,2.700000070E-2,-2.805000171E-2,9.826950073E0
4.818974501E0,3.000000026E-3,-2.505000122E-2,9.846000671E0
4.821474901E0,-7.950000465E-3,-1.095000096E-2,9.847950935E0
4.823975438E0,-2.505000122E-2,5.505000427E-2,9.859950066E0
4.826476053E0,-4.950000439E-3,3.600000218E-2,9.847950935E0
4.828976440E0,2.205000073E-2,3.795000166E-2,9.834000587E0
4.831476976E0,1.995000057E-2,6.495000422E-2,9.834000587E0
4.833977363E0,-7.950000465E-3,9.795000404E-2,9.850950241E0
4.836477976E0,-1.005000062E-2,1.240500063E-1,9.841050148E0
4.838978517E0,7.950000465E-3,1.290000081E-1,9.832050323E0
4.841478901E0,4.395000264E-2,1.390500069E-1,9.810000420E0
4.843979438E0,3.405000269E-2,1.459500045E-1,9.838950157E0
4.846480053E0,6.000000052E-3,1.390500069E-1,9.829050064E0
4.848980440E0,2.505000122E-2,1.319999993E-1,9.847950935E0
4.851480976E0,5.295000225E-2,1.150500029E-1,9.838950157E0
4.853981368E0,1.039500013E-1,1.200000048E-1,9.832050323E0
4.856481904E0,1.090500057E-1,1.099500060E-1,9.834000587E0
4.858982520E0,8.205000311E-2,1.240500063E-1,9.835950851E0
4.861482906E0,8.205000311E-2,1.120500043E-1,9.856050491E0
4.863983457E0,9.705000371E-2,1.080000028E-1,9.858000755E0
4.866483843E0,1.420500129E-1,8.400000632E-2,9.844050407E0
4.868984457E0,1.129500046E-1,1.080000028E-1,9.850950241E0
4.871484997E0,7.695000619E-2,1.080000028E-1,9.846000671E0
4.873985382E0,7.304999977E-2,1.030500084E-1,9.856050491E0
4.876485922E0,1.060500070E-1,8.595000207E-2,9.847950935E0
4.878986538E0,1.399500072E-1,8.895000070E-2,9.834000587E0
4.881486924E0,1.469999999E-1,9.105000645E-2,9.835950851E0
4.883987461E0,1.540500075E-1,7.200000435E-2,9.850950241E0
4.886487857E0,1.300500035E-1,7.905000448E-2,9.835950851E0
4.888988471E0,1.609500051E-1,6.195000187E-2,9.832050323E0
4.891489011E0,1.830000132E-1,7.395000011E-2,9.825000763E0
4.893989396E0,1.560000032E-1,9.300000221E-2,9.825000763E0
4.896489960E0,1.350000054E-1,1.050000042E-1,9.832050323E0
4.898990576E0,1.060500070E-1,1.219500080E-1,9.847950935E0
4.901490962E0,1.009500027E-1,1.050000042E-1,9.841050148E0
4.903991499E0,1.279500127E-1,9.795000404E-2,9.834000587E0
4.906492100E0,9.900000691E-2,1.050000042E-1,9.814950943E0
4.908992487E0,7.500000298E-2,1.200000048E-1,9.832050323E0
4.911493023E0,4.905000329E-2,1.360500008E-1,9.846000671E0
4.913993410E0,3.900000080E-2,1.170000061E-1,9.844050407E0
4.916494009E0,3.900000080E-2,1.270500124E-1,9.835950851E0
4.918994550E0,1.800000109E-2,1.390500069E-1,9.841050148E0
4.921494934E0,-2.205000073E-2,1.440000087E-1,9.853050232E0
4.923995471E0,-5.805000290E-2,1.270500124E-1,9.853050232E0
4.926496072E0,-1.005000062E-2,8.895000070E-2,9.850950241E0
4.928996459E0,1.800000109E-2,6.705000252E-2,9.825000763E0
4.931496995E0,5.100000277E-2,5.295000225E-2,9.841050148E0
4.933997382E0,5.100000277E-2,2.400000021E-2,9.846000671E0
4.936497985E0,3.705000132E-2,1.905000024E-2,9.847950935E0
4.938998295E0,5.805000290E-2,-1.095000096E-2,9.844050407E0
4.941498908E0,6.300000101E-2,-1.305000018E-2,9.835950851E0
4.943999447E0,4.905000329E-2,1.950000064E-3,9.838950157E0
4.946500062E0,4.095000029E-2,-1.305000018E-2,9.834000587E0
4.949000445E0,5.295000225E-2,4.950000439E-3,9.846000671E0
4.951500981E0,5.100000277E-2,-4.005000368E-2,9.834000587E0
4.954001368E0,5.595000088E-2,-4.005000368E-2,9.832050323E0
4.956501905E0,5.100000277E-2,-2.295000106E-2,9.841050148E0
4.959002529E0,3.000000119E-2,-2.100000158E-2,9.829050064E0
4.961502916E0,-2.205000073E-2,-2.100000158E-2,9.844050407E0
4.964003452E0,-3.405000269E-2,-1.605000161E-2,9.835950851E0
4.966503839E0,-1.305000018E-2,-1.095000096E-2,9.835950851E0
4.969004461E0,-2.505000122E-2,1.950000064E-3,9.856050491E0
4.971505001E0,-6.300000101E-2,-1.050000079E-3,9.853050232E0
4.974005386E0,-6.300000101E-2,1.905000024E-2,9.850950241E0
4.976505923E0,-7.200000435E-2,1.395000052E-2,9.853050232E0
4.979006524E0,-6.495000422E-2,7.050000131E-3,9.853050232E0
4.981506911E0,-5.295000225E-2,3.795000166E-2,9.853050232E0
4.984007447E0,-4.605000094E-2,4.500000179E-2,9.859950066E0
4.986508062E0,-4.095000029E-2,4.800000042E-2,9.865050316E0
4.989008449E0,-1.005000062E-2,4.995000362E-2,9.847950935E0
4.991508986E0,1.500000060E-2,3.795000166E-2,9.826950073E0
4.994009372E0,3.405000269E-2,4.305000231E-2,9.826950073E0
4.996509986E0,3.000000026E-3,4.995000362E-2,9.835950851E0
4.999010526E0,1.995000057E-2,4.995000362E-2,9.844050407E0
5.001510921E0,6.300000101E-2,2.895000204E-2,9.846000671E0
5.004011457E0,8.700000495E-2,3.299999982E-2,9.838950157E0
5.006512072E0,1.009500027E-1,3.299999982E-2,9.846000671E0
5.009012459E0,1.009500027E-1,4.095000029E-2,9.841050148E0
5.011512990E0,9.705000371E-2,4.095000029E-2,9.847950935E0
5.014013376E0,8.700000495E-2,1.905000024E-2,9.838950157E0
5.016513913E0,9.195000678E-2,4.305000231E-2,9.832050323E0
5.019014528E0,8.505000174E-2,6.195000187E-2,9.846000671E0
5.021514915E0,6.795000285E-2,6.495000422E-2,9.846000671E0
5.024015451E0,7.500000298E-2,7.905000448E-2,9.865050316E0
5.026515838E0,7.005000114E-2,6.195000187E-2,9.834000587E0
5.029016451E0,7.005000114E-2,6.000000238E-2,9.826950073E0
5.031516992E0,5.295000225E-2,5.505000427E-2,9.834000587E0
5.034017352E0,3.705000132E-2,5.505000427E-2,9.835950851E0
5.036517889E0,3.705000132E-2,6.195000187E-2,9.847950935E0
5.039018504E0,3.900000080E-2,5.295000225E-2,9.847950935E0
5.041518891E0,2.700000070E-2,3.299999982E-2,9.856050491E0
5.044019412E0,6.000000052E-3,1.200000010E-2,9.847950935E0
5.046520028E0,-2.205000073E-2,1.695000008E-2,9.844050407E0
5.049020414E0,-7.200000435E-2,-1.050000079E-3,9.838950157E0
5.051520951E0,-7.695000619E-2,-4.905000329E-2,9.850950241E0
5.054021337E0,-7.695000619E-2,-3.000000119E-2,9.856050491E0
5.056521937E0,-1.319999993E-1,-4.005000368E-2,9.858000755E0
5.059022477E0,-1.510500014E-1,-4.200000316E-2,9.858000755E0
5.061522862E0,-1.800000072E-1,-6.599999964E-2,9.858000755E0
5.064023398E0,-1.609500051E-1,-7.605000585E-2,9.859950066E0
5.066524014E0,-1.920000017E-1,-5.205000192E-2,9.844050407E0
5.069024400E0,-1.969500035E-1,-5.700000376E-2,9.853050232E0
5.071524937E0,-1.990500093E-1,-4.500000179E-2,9.859950066E0
5.074025323E0,-2.020500153E-1,-4.905000329E-2,9.868050575E0
5.076525956E0,-1.870500147E-1,-4.905000329E-2,9.862950325E0
5.079026496E0,-1.830000132E-1,-5.205000192E-2,9.850950241E0
5.081526881E0,-1.920000017E-1,-3.705000132E-2,9.835950851E0
5.084027494E0,-1.849500090E-1,-3.299999982E-2,9.856050491E0
5.086528035E0,-1.849500090E-1,-4.500000179E-2,9.858000755E0
5.089028433E0,-1.540500075E-1,-5.400000140E-2,9.841050148E0
5.091528970E0,-1.350000054E-1,-4.200000316E-2,9.858000755E0
5.094029585E0,-1.660500020E-1,-3.495000303E-2,9.862950325E0
5.096529895E0,-1.590000093E-1,-3.000000119E-2,9.865050316E0
5.099030513E0,-1.420500129E-1,-2.100000158E-2,9.858000755E0
5.101530900E0,-1.039500013E-1,-3.000000119E-2,9.841050148E0
5.104031436E0,-9.600000083E-2,-3.495000303E-2,9.844050407E0
5.106531823E0,-9.600000083E-2,-1.605000161E-2,9.862950325E0
5.109032441E0,-8.205000311E-2,0.000000000E0,9.858000755E0
5.111532982E0,-2.700000070E-2,-1.305000018E-2,9.856050491E0
5.114033366E0,1.800000109E-2,1.905000024E-2,9.859950066E0
