"Time (s)","Gyroscope x (rad/s)","Gyroscope y (rad/s)","Gyroscope z (rad/s)"
2.801823500E-2,9.624999948E-4,-4.812499974E-3,1.223750040E-2
3.051781000E-2,9.624999948E-4,-4.812499974E-3,1.539999992E-2
3.301834600E-2,-1.099999994E-3,-4.812499974E-3,1.869999990E-2
3.551896200E-2,9.624999948E-4,-4.812499974E-3,2.186249942E-2
3.801934800E-2,-1.374999993E-4,-5.499999970E-4,2.392499894E-2
4.051989900E-2,-1.374999993E-4,-5.499999970E-4,2.708750032E-2
4.302028600E-2,-1.374999993E-4,-1.649999991E-3,3.135000169E-2
4.552089900E-2,9.624999948E-4,-1.649999991E-3,3.464999795E-2
4.802143900E-2,2.062499989E-3,4.812499974E-3,3.671250120E-2
5.052183300E-2,2.062499989E-3,5.912499968E-3,4.097500071E-2
5.302237000E-2,-1.374999993E-4,2.612499986E-3,4.317500070E-2
5.552298500E-2,-1.374999993E-4,3.712499980E-3,4.839999974E-2
5.802337200E-2,2.062499989E-3,2.612499986E-3,5.156249925E-2
6.052390300E-2,-1.374999993E-4,3.712499980E-3,5.266249925E-2
6.302451800E-2,-2.199999988E-3,5.499999970E-4,5.692499876E-2
6.552482800E-2,9.624999948E-4,-5.499999970E-4,6.008749828E-2
6.802544100E-2,-1.099999994E-3,5.499999970E-4,6.228749827E-2
7.052582800E-2,2.062499989E-3,3.712499980E-3,6.544999778E-2
7.302637000E-2,9.624999948E-4,5.499999970E-4,6.861250103E-2
7.552675600E-2,2.062499989E-3,1.649999991E-3,7.191249728E-2
7.802737000E-2,9.624999948E-4,5.499999970E-4,7.287500054E-2
8.052791000E-2,-1.099999994E-3,-5.499999970E-4,7.397499681E-2
8.302832500E-2,9.624999948E-4,-1.649999991E-3,7.823749632E-2
8.552886100E-2,2.062499989E-3,5.499999970E-4,8.030000329E-2
8.802947700E-2,9.624999948E-4,-5.499999970E-4,8.030000329E-2
9.052986300E-2,9.624999948E-4,5.499999970E-4,8.249999583E-2
9.303039500E-2,-1.374999993E-4,-1.649999991E-3,8.359999955E-2
9.553078100E-2,9.624999948E-4,5.499999970E-4,8.566249907E-2
9.803139500E-2,2.062499989E-3,5.499999970E-4,8.456250280E-2
1.005319350E-1,9.624999948E-4,-5.499999970E-4,8.566249907E-2
1.030323440E-1,2.062499989E-3,5.499999970E-4,8.566249907E-2
1.055328800E-1,9.624999948E-4,-5.499999970E-4,8.566249907E-2
1.080334960E-1,-1.374999993E-4,5.499999970E-4,8.566249907E-2
1.105338820E-1,9.624999948E-4,5.499999970E-4,8.676250279E-2
1.130344190E-1,2.062499989E-3,-5.499999970E-4,8.566249907E-2
1.155348290E-1,9.624999948E-4,-5.499999970E-4,8.249999583E-2
1.180354430E-1,-1.374999993E-4,1.649999991E-3,8.249999583E-2
1.205359830E-1,9.624999948E-4,5.499999970E-4,8.030000329E-2
1.230363680E-1,2.062499989E-3,1.649999991E-3,7.933750004E-2
1.255370090E-1,9.624999948E-4,-5.499999970E-4,7.713750005E-2
1.280375500E-1,9.624999948E-4,-5.499999970E-4,7.507500052E-2
1.305379340E-1,-1.374999993E-4,-5.499999970E-4,7.287500054E-2
1.330384710E-1,-1.374999993E-4,-5.499999970E-4,7.191249728E-2
1.355388760E-1,9.624999948E-4,-1.649999991E-3,6.971249729E-2
1.380394900E-1,-1.374999993E-4,5.499999970E-4,6.544999778E-2
1.405400300E-1,3.162499983E-3,5.499999970E-4,6.544999778E-2
1.430404150E-1,2.062499989E-3,1.649999991E-3,6.008749828E-2
1.455409510E-1,2.062499989E-3,1.649999991E-3,5.692499876E-2
1.480413380E-1,9.624999948E-4,-5.499999970E-4,5.376249924E-2
1.505419510E-1,9.624999948E-4,5.499999970E-4,4.949999973E-2
1.530424920E-1,-1.374999993E-4,-5.499999970E-4,4.523750022E-2
1.555428760E-1,9.624999948E-4,-5.499999970E-4,4.207500070E-2
1.580434180E-1,-2.199999988E-3,5.499999970E-4,3.987500072E-2
1.605440330E-1,-1.374999993E-4,1.649999991E-3,3.561250120E-2
1.630444200E-1,-1.374999993E-4,-5.499999970E-4,3.038750030E-2
1.655449560E-1,9.624999948E-4,5.499999970E-4,2.928750031E-2
1.680453570E-1,9.624999948E-4,5.499999970E-4,2.392499894E-2
1.705459700E-1,9.624999948E-4,5.499999970E-4,1.869999990E-2
1.730465110E-1,-1.374999993E-4,-5.499999970E-4,1.333750039E-2
1.755468950E-1,9.624999948E-4,-5.499999970E-4,1.223750040E-2
1.780474280E-1,9.624999948E-4,-1.649999991E-3,7.974999957E-3
1.805480430E-1,-1.099999994E-3,-1.649999991E-3,4.812499974E-3
1.830484300E-1,-1.374999993E-4,-5.499999970E-4,-1.649999991E-3
1.855489660E-1,9.624999948E-4,-5.499999970E-4,-3.712499980E-3
1.880493530E-1,9.624999948E-4,5.499999970E-4,-7.974999957E-3
1.905499560E-1,-1.374999993E-4,-1.649999991E-3,-1.113750041E-2
1.930504970E-1,9.624999948E-4,-5.499999970E-4,-1.539999992E-2
1.955508810E-1,-1.374999993E-4,-5.499999970E-4,-1.856249943E-2
1.980514180E-1,-1.374999993E-4,-5.499999970E-4,-2.282499894E-2
2.005520230E-1,-1.099999994E-3,-1.649999991E-3,-2.502499893E-2
2.030524100E-1,9.624999948E-4,-2.612499986E-3,-2.818750031E-2
2.055529460E-1,-1.099999994E-3,-6.874999963E-3,-3.355000168E-2
2.080535620E-1,-2.199999988E-3,-1.429999992E-2,-4.633750021E-2
2.105539480E-1,-2.199999988E-3,6.874999963E-3,-5.582499877E-2
2.130544850E-1,-2.199999988E-3,7.974999957E-3,-5.898749828E-2
2.155548720E-1,-1.099999994E-3,-5.499999970E-4,-6.118749827E-2
2.180554080E-1,2.062499989E-3,2.612499986E-3,-6.228749827E-2
2.205557950E-1,9.624999948E-4,7.974999957E-3,-6.435000151E-2
2.230564080E-1,2.062499989E-3,5.499999970E-4,-6.435000151E-2
2.255569480E-1,-1.374999993E-4,-5.499999970E-4,-6.544999778E-2
2.280573330E-1,-4.399999976E-3,-5.774999969E-3,-6.971249729E-2
2.305578700E-1,-3.299999982E-3,-5.774999969E-3,-7.713750005E-2
2.330584850E-1,-2.199999988E-3,-1.649999991E-3,-8.030000329E-2
2.355588720E-1,-2.199999988E-3,5.499999970E-4,-8.566249907E-2
2.380594080E-1,-1.099999994E-3,5.499999970E-4,-8.456250280E-2
2.405597950E-1,2.062499989E-3,1.649999991E-3,-8.456250280E-2
2.430604080E-1,2.062499989E-3,5.499999970E-4,-8.139999956E-2
2.455609490E-1,2.062499989E-3,5.499999970E-4,-8.030000329E-2
2.480613330E-1,9.624999948E-4,-5.499999970E-4,-8.030000329E-2
2.505618700E-1,-2.199999988E-3,-1.649999991E-3,-8.030000329E-2
2.530624850E-1,-4.399999976E-3,-5.774999969E-3,-8.030000329E-2
2.555628470E-1,-4.399999976E-3,-5.774999969E-3,-8.676250279E-2
2.580633830E-1,-3.299999982E-3,1.649999991E-3,-8.882500231E-2
2.605639980E-1,-1.099999994E-3,-1.649999991E-3,-8.772499859E-2
2.630643850E-1,-1.374999993E-4,5.499999970E-4,-8.139999956E-2
2.655649270E-1,9.624999948E-4,7.974999957E-3,-7.713750005E-2
2.680653130E-1,3.162499983E-3,3.712499980E-3,-6.751249731E-2
2.705659270E-1,9.624999948E-4,-5.499999970E-4,-6.324999779E-2
2.730664670E-1,-2.199999988E-3,1.649999991E-3,-5.802499875E-2
2.755668180E-1,-5.362499971E-3,-1.649999991E-3,-5.156249925E-2
2.780673540E-1,-4.399999976E-3,-4.812499974E-3,-4.303750023E-2
2.805679700E-1,-3.299999982E-3,-6.874999963E-3,-3.781250119E-2
2.830683560E-1,-1.374999993E-4,-2.612499986E-3,-3.355000168E-2
2.855688930E-1,9.624999948E-4,5.499999970E-4,-2.708750032E-2
2.880692750E-1,2.062499989E-3,5.912499968E-3,-2.076249942E-2
2.905698890E-1,3.162499983E-3,5.912499968E-3,-1.539999992E-2
2.930704290E-1,3.162499983E-3,1.649999991E-3,-6.874999963E-3
2.955708140E-1,9.624999948E-4,-2.612499986E-3,-4.812499974E-3
2.980713300E-1,-2.199999988E-3,-5.499999970E-4,-1.649999991E-3
3.005717170E-1,-4.399999976E-3,1.649999991E-3,5.912499968E-3
3.030722530E-1,-2.199999988E-3,-3.712499980E-3,1.333750039E-2
3.055728690E-1,-1.374999993E-4,-4.812499974E-3,1.966249943E-2
3.080732360E-1,-1.374999993E-4,-2.612499986E-3,2.392499894E-2
3.105737730E-1,-1.374999993E-4,1.649999991E-3,2.818750031E-2
3.130741590E-1,3.162499983E-3,6.874999963E-3,3.561250120E-2
3.155747730E-1,2.062499989E-3,5.912499968E-3,4.317500070E-2
3.180753130E-1,2.062499989E-3,2.612499986E-3,4.839999974E-2
3.205756980E-1,9.624999948E-4,5.499999970E-4,5.156249925E-2
3.230763110E-1,-1.099999994E-3,-1.649999991E-3,5.802499875E-2
3.255768520E-1,-4.399999976E-3,-5.499999970E-4,6.228749827E-2
3.280772360E-1,-1.374999993E-4,-5.499999970E-4,6.655000150E-2
3.305777630E-1,2.062499989E-3,-1.649999991E-3,7.081250101E-2
3.330783780E-1,2.062499989E-3,-1.649999991E-3,7.397499681E-2
3.355787650E-1,3.162499983E-3,1.649999991E-3,7.603749633E-2
3.380793010E-1,5.224999972E-3,6.874999963E-3,7.713750005E-2
3.405796690E-1,5.224999972E-3,4.812499974E-3,8.249999583E-2
3.430802820E-1,3.162499983E-3,-5.499999970E-4,8.249999583E-2
3.455808230E-1,-1.374999993E-4,-4.812499974E-3,8.139999956E-2
3.480812070E-1,-2.199999988E-3,-4.812499974E-3,8.030000329E-2
3.505817440E-1,-1.099999994E-3,-3.712499980E-3,8.359999955E-2
3.530823450E-1,-1.374999993E-4,1.649999991E-3,8.456250280E-2
3.555827320E-1,3.162499983E-3,5.499999970E-4,8.456250280E-2
3.580832680E-1,3.162499983E-3,5.499999970E-4,8.456250280E-2
3.605836550E-1,4.124999978E-3,3.712499980E-3,8.359999955E-2
3.630842580E-1,2.062499989E-3,6.874999963E-3,8.456250280E-2
3.655845680E-1,2.062499989E-3,4.812499974E-3,8.566249907E-2
3.680851810E-1,3.162499983E-3,-5.499999970E-4,8.456250280E-2
3.705857200E-1,-1.374999993E-4,-1.649999991E-3,8.030000329E-2
3.730863110E-1,-1.099999994E-3,-1.649999991E-3,7.823749632E-2
3.755866980E-1,-2.199999988E-3,-5.499999970E-4,7.933750004E-2
3.780872340E-1,9.624999948E-4,5.499999970E-4,7.603749633E-2
3.805876210E-1,3.162499983E-3,5.499999970E-4,7.397499681E-2
3.830881570E-1,3.162499983E-3,-5.499999970E-4,6.655000150E-2
3.855887490E-1,4.124999978E-3,2.612499986E-3,6.228749827E-2
3.880891350E-1,2.062499989E-3,5.912499968E-3,5.692499876E-2
3.905896720E-1,2.062499989E-3,3.712499980E-3,5.582499877E-2
3.930900590E-1,9.624999948E-4,-2.612499986E-3,4.839999974E-2
3.955906430E-1,-1.099999994E-3,-7.974999957E-3,4.633750021E-2
3.980911830E-1,-1.099999994E-3,-3.712499980E-3,3.891250119E-2
4.005915680E-1,-1.374999993E-4,5.499999970E-4,3.561250120E-2
4.030921050E-1,2.062499989E-3,3.712499980E-3,3.135000169E-2
4.055927100E-1,2.062499989E-3,1.649999991E-3,2.818750031E-2
4.080930970E-1,2.062499989E-3,3.712499980E-3,2.282499894E-2
4.105936330E-1,3.162499983E-3,-5.499999970E-4,1.539999992E-2
4.130940200E-1,-1.099999994E-3,4.812499974E-3,1.443750039E-2
4.155946330E-1,-1.374999993E-4,4.812499974E-3,1.113750041E-2
4.180951640E-1,-1.099999994E-3,-2.612499986E-3,6.874999963E-3
4.205955490E-1,-2.199999988E-3,-7.974999957E-3,5.499999970E-4
4.230960860E-1,-2.199999988E-3,-3.712499980E-3,-3.712499980E-3
4.255967010E-1,-1.374999993E-4,1.649999991E-3,-9.074999951E-3
4.280970930E-1,3.162499983E-3,4.812499974E-3,-1.333750039E-2
4.305976290E-1,2.062499989E-3,1.649999991E-3,-1.966249943E-2
4.330982440E-1,2.062499989E-3,-1.649999991E-3,-2.392499894E-2
4.355986310E-1,2.062499989E-3,-5.499999970E-4,-2.818750031E-2
4.380991730E-1,9.624999948E-4,1.649999991E-3,-3.561250120E-2
4.405995590E-1,-1.099999994E-3,1.649999991E-3,-3.987500072E-2
4.431000960E-1,-2.199999988E-3,-3.712499980E-3,-4.523750022E-2
4.456007110E-1,-3.299999982E-3,-6.874999963E-3,-4.839999974E-2
4.481010890E-1,-3.299999982E-3,-5.774999969E-3,-5.266249925E-2
4.506016250E-1,-1.374999993E-4,3.712499980E-3,-5.582499877E-2
4.531020120E-1,9.624999948E-4,6.874999963E-3,-6.008749828E-2
4.556025480E-1,3.162499983E-3,4.812499974E-3,-6.118749827E-2
4.581031640E-1,2.062499989E-3,-2.612499986E-3,-6.544999778E-2
4.606035210E-1,-1.099999994E-3,-1.649999991E-3,-6.544999778E-2
4.631040580E-1,-3.299999982E-3,5.499999970E-4,-6.751249731E-2
4.656044440E-1,-2.199999988E-3,1.649999991E-3,-6.971249729E-2
4.681050580E-1,-2.199999988E-3,-3.712499980E-3,-7.287500054E-2
4.706055930E-1,-2.199999988E-3,-4.812499974E-3,-7.287500054E-2
4.731059780E-1,-1.099999994E-3,-4.812499974E-3,-7.507500052E-2
4.756065140E-1,2.062499989E-3,2.612499986E-3,-7.507500052E-2
4.781071300E-1,9.624999948E-4,5.912499968E-3,-7.713750005E-2
4.806075020E-1,3.162499983E-3,1.649999991E-3,-7.933750004E-2
4.831080390E-1,9.624999948E-4,-3.712499980E-3,-7.933750004E-2
4.856086540E-1,-1.374999993E-4,-4.812499974E-3,-8.030000329E-2
4.881090410E-1,-2.199999988E-3,-5.499999970E-4,-7.933750004E-2
4.906095670E-1,-1.099999994E-3,2.612499986E-3,-8.030000329E-2
4.931099540E-1,-1.099999994E-3,-2.612499986E-3,-8.030000329E-2
4.956105670E-1,-3.299999982E-3,-6.874999963E-3,-7.823749632E-2
4.981111080E-1,-1.099999994E-3,-2.612499986E-3,-7.713750005E-2
5.006114920E-1,2.062499989E-3,4.812499974E-3,-7.397499681E-2
5.031120290E-1,9.624999948E-4,6.874999963E-3,-7.177499682E-2
5.056126440E-1,9.624999948E-4,3.712499980E-3,-7.081250101E-2
5.081130310E-1,9.624999948E-4,-1.649999991E-3,-6.544999778E-2
5.106135670E-1,-2.199999988E-3,-4.812499974E-3,-6.228749827E-2
5.131139490E-1,-2.199999988E-3,-5.499999970E-4,-6.008749828E-2
5.156145620E-1,-2.199999988E-3,3.712499980E-3,-5.582499877E-2
5.181151030E-1,-2.199999988E-3,-2.612499986E-3,-5.376249924E-2
5.206154870E-1,-1.099999994E-3,-4.812499974E-3,-5.059999973E-2
5.231160190E-1,2.062499989E-3,-2.612499986E-3,-4.839999974E-2
5.256166340E-1,3.162499983E-3,5.912499968E-3,-4.303750023E-2
5.281170210E-1,3.162499983E-3,7.974999957E-3,-4.207500070E-2
5.306175570E-1,9.624999948E-4,1.649999991E-3,-3.987500072E-2
5.331179490E-1,-1.099999994E-3,-5.774999969E-3,-3.451250121E-2
5.356184850E-1,-2.199999988E-3,-5.774999969E-3,-2.928750031E-2
5.381191010E-1,-2.199999988E-3,-1.649999991E-3,-2.818750031E-2
5.406194870E-1,-1.374999993E-4,2.612499986E-3,-2.502499893E-2
5.431200480E-1,-1.374999993E-4,5.499999970E-4,-2.186249942E-2
5.456204340E-1,-1.374999993E-4,-5.774999969E-3,-1.759999990E-2
5.481210480E-1,9.624999948E-4,-1.649999991E-3,-1.003750041E-2
5.506215880E-1,3.162499983E-3,3.712499980E-3,-5.774999969E-3
5.531219730E-1,2.062499989E-3,7.974999957E-3,-1.649999991E-3
5.556225190E-1,-1.374999993E-4,2.612499986E-3,1.649999991E-3
5.581231350E-1,-1.374999993E-4,-5.774999969E-3,7.974999957E-3
5.606235210E-1,-2.199999988E-3,-3.712499980E-3,1.443750039E-2
5.631240580E-1,-1.099999994E-3,-5.499999970E-4,1.966249943E-2
5.656244640E-1,-1.374999993E-4,3.712499980E-3,1.966249943E-2
5.681250770E-1,-1.374999993E-4,2.612499986E-3,2.392499894E-2
5.706256170E-1,2.062499989E-3,-2.612499986E-3,2.818750031E-2
5.731260020E-1,3.162499983E-3,-5.499999970E-4,3.464999795E-2
5.756265280E-1,4.124999978E-3,2.612499986E-3,3.671250120E-2
5.781271440E-1,2.062499989E-3,7.974999957E-3,3.781250119E-2
5.806275300E-1,-1.374999993E-4,5.499999970E-4,3.891250119E-2
5.831280670E-1,-2.199999988E-3,-9.074999951E-3,4.207500070E-2
5.856284540E-1,-1.099999994E-3,-7.974999957E-3,4.633750021E-2
5.881290720E-1,-2.199999988E-3,5.499999970E-4,4.633750021E-2
5.906296120E-1,2.062499989E-3,3.712499980E-3,4.949999973E-2
5.931299970E-1,2.062499989E-3,5.499999970E-4,5.156249925E-2
5.956305340E-1,9.624999948E-4,-3.712499980E-3,5.692499876E-2
5.981311440E-1,3.162499983E-3,5.499999970E-4,5.912499875E-2
6.006315310E-1,3.162499983E-3,4.812499974E-3,6.118749827E-2
6.031320670E-1,9.624999948E-4,5.912499968E-3,6.008749828E-2
6.056324540E-1,-1.374999993E-4,-5.499999970E-4,6.435000151E-2
6.081330340E-1,-2.199999988E-3,-5.774999969E-3,6.544999778E-2
6.106335740E-1,-1.099999994E-3,-5.774999969E-3,6.861250103E-2
6.131339590E-1,9.624999948E-4,2.612499986E-3,6.764999777E-2
6.156344960E-1,9.624999948E-4,6.874999963E-3,6.655000150E-2
6.181348820E-1,2.062499989E-3,1.649999991E-3,6.655000150E-2
6.206355200E-1,2.062499989E-3,-2.612499986E-3,6.544999778E-2
6.231360600E-1,2.062499989E-3,-5.499999970E-4,6.655000150E-2
6.256364450E-1,2.062499989E-3,3.712499980E-3,6.338749826E-2
6.281369810E-1,-1.374999993E-4,5.912499968E-3,6.118749827E-2
6.306375970E-1,-1.099999994E-3,-2.612499986E-3,6.008749828E-2
6.331379830E-1,-1.099999994E-3,-9.074999951E-3,5.912499875E-2
6.356385200E-1,-2.199999988E-3,-6.874999963E-3,5.802499875E-2
6.381389060E-1,-1.374999993E-4,1.649999991E-3,5.692499876E-2
6.406395100E-1,9.624999948E-4,4.812499974E-3,5.582499877E-2
6.431400500E-1,2.062499989E-3,3.712499980E-3,5.266249925E-2
6.456404350E-1,3.162499983E-3,-1.649999991E-3,5.156249925E-2
6.481409710E-1,9.624999948E-4,-1.649999991E-3,4.839999974E-2
6.506415970E-1,2.062499989E-3,4.812499974E-3,4.523750022E-2
6.531419830E-1,-1.374999993E-4,5.912499968E-3,4.207500070E-2
6.556425200E-1,-2.199999988E-3,-2.612499986E-3,3.781250119E-2
6.581431350E-1,-3.299999982E-3,-6.874999963E-3,3.671250120E-2
6.606435220E-1,-1.374999993E-4,-3.712499980E-3,3.244999796E-2
6.631440480E-1,2.062499989E-3,3.712499980E-3,2.928750031E-2
6.656444350E-1,2.062499989E-3,6.874999963E-3,2.076249942E-2
6.681449710E-1,9.624999948E-4,3.712499980E-3,1.539999992E-2
6.706455870E-1,9.624999948E-4,-2.612499986E-3,1.113750041E-2
6.731459780E-1,9.624999948E-4,-1.649999991E-3,5.912499968E-3
6.756465150E-1,9.624999948E-4,1.649999991E-3,-3.712499980E-3
6.781469010E-1,-1.099999994E-3,3.712499980E-3,-1.333750039E-2
6.806475150E-1,-3.299999982E-3,-2.612499986E-3,-1.649999991E-2
6.831480550E-1,-3.299999982E-3,-7.974999957E-3,-2.282499894E-2
6.856484540E-1,-1.099999994E-3,-5.774999969E-3,-2.818750031E-2
6.881489900E-1,2.062499989E-3,4.812499974E-3,-3.671250120E-2
6.906493770E-1,3.162499983E-3,9.074999951E-3,-4.303750023E-2
6.931499900E-1,9.624999948E-4,1.649999991E-3,-4.729999974E-2
6.956505310E-1,9.624999948E-4,-4.812499974E-3,-4.949999973E-2
6.981509150E-1,9.624999948E-4,-2.612499986E-3,-5.582499877E-2
7.006514520E-1,-1.099999994E-3,3.712499980E-3,-6.008749828E-2
7.031520670E-1,-1.099999994E-3,2.612499986E-3,-6.544999778E-2
7.056524540E-1,-1.099999994E-3,-3.712499980E-3,-6.971249729E-2
7.081529990E-1,-1.099999994E-3,-5.774999969E-3,-7.287500054E-2
7.106533860E-1,-1.374999993E-4,-2.612499986E-3,-7.603749633E-2
7.131539990E-1,2.062499989E-3,6.874999963E-3,-8.030000329E-2
7.156545400E-1,2.062499989E-3,6.874999963E-3,-8.676250279E-2
7.181549010E-1,-1.374999993E-4,5.499999970E-4,-8.992499858E-2
7.206555150E-1,-1.099999994E-3,-6.874999963E-3,-9.102500230E-2
7.231560550E-1,-1.099999994E-3,-3.712499980E-3,-9.418749809E-2
7.256564400E-1,-2.199999988E-3,5.499999970E-4,-9.198749810E-2
7.281569760E-1,-2.199999988E-3,1.649999991E-3,-9.624999762E-2
7.306575820E-1,-2.199999988E-3,-3.712499980E-3,-9.528750181E-2
7.331579680E-1,-1.099999994E-3,-5.774999969E-3,-9.308750182E-2
7.356585050E-1,2.062499989E-3,-1.649999991E-3,-8.992499858E-2
7.381588910E-1,9.624999948E-4,4.812499974E-3,-8.772499859E-2
7.406595100E-1,2.062499989E-3,5.912499968E-3,-8.249999583E-2
7.431600500E-1,-1.099999994E-3,5.499999970E-4,-7.823749632E-2
7.456604350E-1,-1.099999994E-3,-6.874999963E-3,-7.177499682E-2
7.481609710E-1,-1.099999994E-3,-5.774999969E-3,-6.544999778E-2
7.506615960E-1,-2.199999988E-3,3.712499980E-3,-6.008749828E-2
7.531619820E-1,-2.199999988E-3,3.712499980E-3,-5.486249924E-2
7.556625190E-1,-1.099999994E-3,-1.649999991E-3,-4.839999974E-2
7.581629060E-1,-1.374999993E-4,-6.874999963E-3,-3.987500072E-2
7.606634420E-1,2.062499989E-3,5.499999970E-4,-3.451250121E-2
7.631640290E-1,3.162499983E-3,6.874999963E-3,-3.038750030E-2
7.656644160E-1,2.062499989E-3,5.912499968E-3,-2.708750032E-2
7.681649520E-1,-1.099999994E-3,-5.499999970E-4,-1.759999990E-2
7.706653390E-1,-1.099999994E-3,-9.074999951E-3,-9.074999951E-3
7.731659610E-1,-1.099999994E-3,-4.812499974E-3,-3.712499980E-3
7.756665020E-1,9.624999948E-4,1.649999991E-3,-5.499999970E-4
7.781668870E-1,-1.374999993E-4,3.712499980E-3,7.974999957E-3
7.806674230E-1,9.624999948E-4,-1.649999991E-3,1.649999991E-2
7.831680810E-1,-1.374999993E-4,-5.774999969E-3,2.502499893E-2
7.856684680E-1,2.062499989E-3,-1.649999991E-3,3.135000169E-2
7.881690050E-1,3.162499983E-3,6.874999963E-3,3.781250119E-2
7.906693910E-1,2.062499989E-3,6.874999963E-3,4.317500070E-2
7.931700100E-1,-1.374999993E-4,-2.612499986E-3,4.949999973E-2
7.956705500E-1,-2.199999988E-3,-7.974999957E-3,5.912499875E-2
7.981709350E-1,-1.099999994E-3,-4.812499974E-3,6.435000151E-2
8.006714710E-1,-1.374999993E-4,3.712499980E-3,6.764999777E-2
8.031721050E-1,-1.374999993E-4,3.712499980E-3,7.081250101E-2
8.056724920E-1,-1.374999993E-4,5.499999970E-4,7.507500052E-2
8.081730290E-1,2.062499989E-3,-3.712499980E-3,7.933750004E-2
8.106734150E-1,2.062499989E-3,5.499999970E-4,8.359999955E-2
8.131740340E-1,2.062499989E-3,5.912499968E-3,8.359999955E-2
8.156745740E-1,9.624999948E-4,6.874999963E-3,8.249999583E-2
8.181749590E-1,-1.374999993E-4,-5.499999970E-4,8.456250280E-2
8.206754950E-1,-1.374999993E-4,-7.974999957E-3,8.676250279E-2
8.231761060E-1,-1.374999993E-4,-2.612499986E-3,8.676250279E-2
8.256764920E-1,9.624999948E-4,2.612499986E-3,8.566249907E-2
8.281770290E-1,9.624999948E-4,3.712499980E-3,8.786249906E-2
8.306776440E-1,9.624999948E-4,-5.499999970E-4,8.676250279E-2
8.331780310E-1,2.062499989E-3,-2.612499986E-3,8.882500231E-2
8.356785670E-1,2.062499989E-3,5.499999970E-4,8.882500231E-2
8.381789540E-1,2.062499989E-3,4.812499974E-3,8.676250279E-2
8.406794900E-1,2.062499989E-3,2.612499986E-3,8.676250279E-2
8.431798770E-1,-3.299999982E-3,-1.649999991E-3,8.566249907E-2
8.456804900E-1,9.624999948E-4,-5.774999969E-3,8.566249907E-2
8.481810310E-1,9.624999948E-4,-2.612499986E-3,8.456250280E-2
8.506814150E-1,9.624999948E-4,2.612499986E-3,8.139999956E-2
8.531819470E-1,3.162499983E-3,6.874999963E-3,7.713750005E-2
8.556825620E-1,2.062499989E-3,-5.499999970E-4,7.507500052E-2
8.581829490E-1,2.062499989E-3,-3.712499980E-3,7.397499681E-2
8.606834850E-1,2.062499989E-3,5.499999970E-4,6.764999777E-2
8.631838720E-1,-1.374999993E-4,4.812499974E-3,6.228749827E-2
8.656844900E-1,-1.374999993E-4,2.612499986E-3,5.692499876E-2
8.681850310E-1,-2.199999988E-3,-2.612499986E-3,5.802499875E-2
8.706854150E-1,-1.374999993E-4,-5.774999969E-3,5.156249925E-2
8.731859520E-1,-2.199999988E-3,-2.612499986E-3,4.839999974E-2
8.756865620E-1,9.624999948E-4,2.612499986E-3,4.413750023E-2
8.781869490E-1,-1.374999993E-4,5.912499968E-3,3.987500072E-2
8.806874850E-1,2.062499989E-3,5.499999970E-4,3.987500072E-2
8.831881010E-1,2.062499989E-3,-4.812499974E-3,3.671250120E-2
8.856884870E-1,9.624999948E-4,-5.499999970E-4,3.244999796E-2
8.881890290E-1,-1.099999994E-3,1.649999991E-3,3.135000169E-2
8.906894150E-1,-1.099999994E-3,2.612499986E-3,2.818750031E-2
8.931900290E-1,-1.099999994E-3,-4.812499974E-3,2.502499893E-2
8.956905690E-1,-1.374999993E-4,-5.774999969E-3,2.186249942E-2
8.981909630E-1,9.624999948E-4,-5.499999970E-4,1.966249943E-2
9.006914990E-1,3.162499983E-3,3.712499980E-3,1.869999990E-2
9.031918860E-1,9.624999948E-4,4.812499974E-3,1.017499994E-2
9.056924990E-1,2.062499989E-3,5.499999970E-4,6.874999963E-3
9.081930260E-1,9.624999948E-4,-2.612499986E-3,3.712499980E-3
9.106934100E-1,9.624999948E-4,-5.499999970E-4,-1.649999991E-3
9.131939470E-1,-1.099999994E-3,1.649999991E-3,-7.974999957E-3
9.156945620E-1,-2.199999988E-3,3.712499980E-3,-1.333750039E-2
9.181949440E-1,-1.099999994E-3,-3.712499980E-3,-1.649999991E-2
9.206954800E-1,9.624999948E-4,-4.812499974E-3,-1.966249943E-2
9.231958670E-1,2.062499989E-3,-2.612499986E-3,-2.186249942E-2
9.256964030E-1,-1.374999993E-4,3.712499980E-3,-2.708750032E-2
9.281970330E-1,2.062499989E-3,3.712499980E-3,-2.818750031E-2
9.306974190E-1,9.624999948E-4,-5.499999970E-4,-3.038750030E-2
9.331979560E-1,-1.374999993E-4,-2.612499986E-3,-3.244999796E-2
9.356985710E-1,-1.374999993E-4,-5.499999970E-4,-3.561250120E-2
9.381989580E-1,-2.199999988E-3,5.499999970E-4,-3.671250120E-2
9.406994900E-1,-2.199999988E-3,-5.499999970E-4,-3.987500072E-2
9.431998770E-1,-2.199999988E-3,-4.812499974E-3,-3.781250119E-2
9.457004900E-1,-1.374999993E-4,-1.649999991E-3,-4.097500071E-2
9.482010310E-1,9.624999948E-4,5.499999970E-4,-4.729999974E-2
9.507013960E-1,2.062499989E-3,3.712499980E-3,-4.633750021E-2
9.532019320E-1,-1.374999993E-4,4.812499974E-3,-4.729999974E-2
9.557025470E-1,9.624999948E-4,-5.499999970E-4,-5.156249925E-2
9.582029340E-1,-1.374999993E-4,-4.812499974E-3,-5.156249925E-2
9.607034660E-1,-2.199999988E-3,-1.649999991E-3,-5.486249924E-2
9.632038530E-1,-1.099999994E-3,1.649999991E-3,-5.582499877E-2
9.657044660E-1,-2.199999988E-3,-5.499999970E-4,-5.692499876E-2
9.682050070E-1,-1.374999993E-4,-2.612499986E-3,-5.486249924E-2
9.707053820E-1,9.624999948E-4,-2.612499986E-3,-5.802499875E-2
9.732059180E-1,9.624999948E-4,5.499999970E-4,-5.898749828E-2
9.757065330E-1,9.624999948E-4,2.612499986E-3,-5.486249924E-2
9.782069200E-1,9.624999948E-4,2.612499986E-3,-5.582499877E-2
9.807074520E-1,-1.374999993E-4,-5.499999970E-4,-5.266249925E-2
9.832080670E-1,-1.099999994E-3,-4.812499974E-3,-5.059999973E-2
9.857083770E-1,-1.374999993E-4,-2.612499986E-3,-5.059999973E-2
9.882089900E-1,-2.199999988E-3,-5.499999970E-4,-4.839999974E-2
9.907093870E-1,-1.374999993E-4,-5.499999970E-4,-4.633750021E-2
9.932100000E-1,-1.374999993E-4,-1.649999991E-3,-4.207500070E-2
9.957103100E-1,9.624999948E-4,-2.612499986E-3,-4.303750023E-2
9.982109230E-1,2.062499989E-3,1.649999991E-3,-4.207500070E-2
1.000711476E0,-1.374999993E-4,4.812499974E-3,-4.097500071E-2
1.003212091E0,9.624999948E-4,1.649999991E-3,-3.987500072E-2
1.005712401E0,-1.374999993E-4,-1.649999991E-3,-3.877500072E-2
1.008213014E0,-1.099999994E-3,-3.712499980E-3,-3.671250120E-2
1.010713401E0,-1.374999993E-4,-1.649999991E-3,-3.671250120E-2
1.013213942E0,-2.199999988E-3,-5.499999970E-4,-3.561250120E-2
1.015714329E0,-1.099999994E-3,1.649999991E-3,-3.135000169E-2
1.018214942E0,9.624999948E-4,-2.612499986E-3,-3.244999796E-2
1.020715483E0,9.624999948E-4,5.499999970E-4,-3.135000169E-2
1.023215867E0,-1.374999993E-4,5.499999970E-4,-2.708750032E-2
1.025716418E0,9.624999948E-4,4.812499974E-3,-2.282499894E-2
1.028217033E0,-1.374999993E-4,1.649999991E-3,-2.076249942E-2
1.030717420E0,-1.374999993E-4,-3.712499980E-3,-1.759999990E-2
1.033217956E0,-2.199999988E-3,-3.712499980E-3,-1.539999992E-2
1.035718577E0,-1.099999994E-3,-2.612499986E-3,-1.113750041E-2
1.038218886E0,-1.374999993E-4,1.649999991E-3,-6.874999963E-3
1.040719500E0,-1.374999993E-4,1.649999991E-3,-3.712499980E-3
1.043219886E0,2.062499989E-3,5.499999970E-4,-1.649999991E-3
1.045720500E0,9.624999948E-4,5.499999970E-4,1.649999991E-3
1.048221040E0,2.062499989E-3,1.649999991E-3,3.712499980E-3
1.050721425E0,9.624999948E-4,2.612499986E-3,4.812499974E-3
1.053221961E0,-1.374999993E-4,1.649999991E-3,6.874999963E-3
1.055722577E0,-2.199999988E-3,-1.649999991E-3,9.074999951E-3
1.058222992E0,-1.374999993E-4,-3.712499980E-3,7.974999957E-3
1.060723529E0,-1.099999994E-3,-2.612499986E-3,1.017499994E-2
1.063223915E0,-1.374999993E-4,2.612499986E-3,1.443750039E-2
1.065724529E0,2.062499989E-3,3.712499980E-3,1.649999991E-2
1.068224838E0,3.162499983E-3,-1.649999991E-3,1.966249943E-2
1.070725452E0,2.062499989E-3,-1.649999991E-3,1.869999990E-2
1.073225990E0,9.624999948E-4,5.499999970E-4,2.076249942E-2
1.075726606E0,-1.099999994E-3,1.649999991E-3,2.076249942E-2
1.078226925E0,-1.099999994E-3,-5.499999970E-4,2.502499893E-2
1.080727539E0,-1.099999994E-3,-2.612499986E-3,2.708750032E-2
1.083227925E0,-1.374999993E-4,-4.812499974E-3,2.818750031E-2
1.085728462E0,9.624999948E-4,-1.649999991E-3,3.038750030E-2
1.088229077E0,9.624999948E-4,1.649999991E-3,3.038750030E-2
1.090729468E0,2.062499989E-3,4.812499974E-3,3.038750030E-2
1.093230004E0,9.624999948E-4,1.649999991E-3,3.038750030E-2
1.095730391E0,9.624999948E-4,-1.649999991E-3,3.135000169E-2
1.098231004E0,2.062499989E-3,-5.499999970E-4,2.928750031E-2
1.100731554E0,-2.199999988E-3,-5.499999970E-4,2.612499893E-2
1.103231938E0,-1.099999994E-3,5.499999970E-4,2.708750032E-2
1.105732475E0,-1.099999994E-3,-1.649999991E-3,2.612499893E-2
1.108233090E0,-1.374999993E-4,-3.712499980E-3,2.502499893E-2
1.110733477E0,-1.099999994E-3,-1.649999991E-3,2.282499894E-2
1.113234013E0,9.624999948E-4,-5.499999970E-4,2.392499894E-2
1.115734400E0,9.624999948E-4,2.612499986E-3,2.282499894E-2
1.118235013E0,9.624999948E-4,2.612499986E-3,2.186249942E-2
1.120735554E0,9.624999948E-4,-2.612499986E-3,2.282499894E-2
1.123235938E0,-1.374999993E-4,-1.649999991E-3,2.282499894E-2
1.125736475E0,-2.199999988E-3,-1.649999991E-3,2.186249942E-2
1.128237090E0,-1.099999994E-3,5.499999970E-4,2.076249942E-2
1.130737477E0,-1.099999994E-3,-5.499999970E-4,2.392499894E-2
1.133238032E0,-1.374999993E-4,-2.612499986E-3,2.282499894E-2
1.135738648E0,-1.374999993E-4,-1.649999991E-3,2.186249942E-2
1.138239034E0,2.062499989E-3,2.612499986E-3,1.966249943E-2
1.140739571E0,-1.374999993E-4,5.912499968E-3,1.966249943E-2
1.143239949E0,9.624999948E-4,3.712499980E-3,1.759999990E-2
1.145740562E0,-1.374999993E-4,-1.649999991E-3,1.869999990E-2
1.148241102E0,-1.099999994E-3,-2.612499986E-3,1.443750039E-2
1.150741487E0,-2.199999988E-3,5.499999970E-4,1.333750039E-2
1.153242042E0,-1.099999994E-3,1.649999991E-3,1.333750039E-2
1.155742429E0,-1.374999993E-4,5.499999970E-4,1.017499994E-2
1.158242966E0,2.062499989E-3,-1.649999991E-3,9.074999951E-3
1.160743581E0,2.062499989E-3,-5.499999970E-4,1.017499994E-2
1.163243953E0,-1.099999994E-3,2.612499986E-3,7.974999957E-3
1.165744489E0,2.062499989E-3,3.712499980E-3,9.074999951E-3
1.168244876E0,2.062499989E-3,2.612499986E-3,6.874999963E-3
1.170745489E0,-1.374999993E-4,-1.649999991E-3,6.874999963E-3
1.173246026E0,-1.374999993E-4,-3.712499980E-3,6.874999963E-3
1.175746410E0,-1.099999994E-3,-2.612499986E-3,7.974999957E-3
1.178246947E0,-1.374999993E-4,2.612499986E-3,4.812499974E-3
1.180747562E0,9.624999948E-4,5.499999970E-4,5.912499968E-3
1.183247934E0,9.624999948E-4,-5.499999970E-4,5.912499968E-3
1.185748470E0,9.624999948E-4,-1.649999991E-3,5.912499968E-3
1.188249085E0,-1.374999993E-4,1.649999991E-3,2.612499986E-3
1.190749472E0,9.624999948E-4,3.712499980E-3,1.649999991E-3
1.193250009E0,9.624999948E-4,2.612499986E-3,1.649999991E-3
1.195750390E0,-1.374999993E-4,-2.612499986E-3,-1.649999991E-3
1.198251004E0,-2.199999988E-3,-3.712499980E-3,-1.649999991E-3
1.200751544E0,-1.099999994E-3,-5.499999970E-4,-5.774999969E-3
1.203251929E0,-1.099999994E-3,2.612499986E-3,-6.874999963E-3
1.205752465E0,9.624999948E-4,5.499999970E-4,-7.974999957E-3
1.208253081E0,2.062499989E-3,-5.499999970E-4,-7.974999957E-3
1.210753467E0,9.624999948E-4,-3.712499980E-3,-9.074999951E-3
1.213254004E0,-1.374999993E-4,1.649999991E-3,-1.113750041E-2
1.215754372E0,9.624999948E-4,1.649999991E-3,-1.223750040E-2
1.218254986E0,-1.099999994E-3,1.649999991E-3,-1.113750041E-2
1.220755295E0,-1.374999993E-4,-2.612499986E-3,-1.113750041E-2
1.223255909E0,-1.374999993E-4,-5.774999969E-3,-7.974999957E-3
1.225756447E0,-1.099999994E-3,-1.649999991E-3,-9.074999951E-3
1.228257034E0,9.624999948E-4,5.499999970E-4,-1.113750041E-2
1.230757343E0,9.624999948E-4,2.612499986E-3,-1.113750041E-2
1.233257957E0,-1.374999993E-4,-1.649999991E-3,-1.003750041E-2
1.235758343E0,9.624999948E-4,-1.649999991E-3,-9.074999951E-3
1.238258861E0,9.624999948E-4,5.499999970E-4,-1.003750041E-2
1.240759476E0,-1.099999994E-3,3.712499980E-3,-1.223750040E-2
1.243259863E0,9.624999948E-4,2.612499986E-3,-1.223750040E-2
1.245760399E0,-1.099999994E-3,-2.612499986E-3,-1.113750041E-2
1.248260767E0,-1.099999994E-3,-5.774999969E-3,-1.333750039E-2
1.250761380E0,-1.099999994E-3,-2.612499986E-3,-1.539999992E-2
1.253261921E0,-1.099999994E-3,3.712499980E-3,-1.649999991E-2
1.255762305E0,2.062499989E-3,4.812499974E-3,-1.429999992E-2
1.258262842E0,2.062499989E-3,5.499999970E-4,-1.429999992E-2
1.260763461E0,9.624999948E-4,-2.612499986E-3,-1.223750040E-2
1.263263848E0,-1.374999993E-4,-5.499999970E-4,-1.333750039E-2
1.265764384E0,-2.199999988E-3,3.712499980E-3,-1.223750040E-2
1.268264771E0,-1.374999993E-4,2.612499986E-3,-9.074999951E-3
1.270765389E0,-1.374999993E-4,-3.712499980E-3,-7.974999957E-3
1.273265930E0,-1.099999994E-3,-3.712499980E-3,-4.812499974E-3
1.275766314E0,-1.374999993E-4,-1.649999991E-3,-5.774999969E-3
1.278266851E0,9.624999948E-4,3.712499980E-3,-4.812499974E-3
1.280767466E0,3.162499983E-3,4.812499974E-3,-3.712499980E-3
1.283267853E0,9.624999948E-4,-1.649999991E-3,-2.612499986E-3
1.285768389E0,9.624999948E-4,-3.712499980E-3,-1.649999991E-3
1.288269005E0,9.624999948E-4,-1.649999991E-3,-3.712499980E-3
1.290769391E0,-1.374999993E-4,2.612499986E-3,-4.812499974E-3
1.293269928E0,-1.374999993E-4,1.649999991E-3,-3.712499980E-3
1.295770314E0,-2.199999988E-3,-1.649999991E-3,-2.612499986E-3
1.298270851E0,-1.099999994E-3,-5.774999969E-3,-2.612499986E-3
1.300771466E0,9.624999948E-4,-5.499999970E-4,-3.712499980E-3
1.303271839E0,9.624999948E-4,5.912499968E-3,-4.812499974E-3
1.305772375E0,2.062499989E-3,4.812499974E-3,-5.774999969E-3
1.308272762E0,9.624999948E-4,-5.499999970E-4,-5.774999969E-3
1.310773375E0,9.624999948E-4,-2.612499986E-3,-6.874999963E-3
1.313273935E0,-1.099999994E-3,-5.499999970E-4,-5.774999969E-3
1.315774319E0,-1.099999994E-3,1.649999991E-3,-5.774999969E-3
1.318274856E0,-1.374999993E-4,1.649999991E-3,-5.774999969E-3
1.320775243E0,-1.374999993E-4,-3.712499980E-3,-4.812499974E-3
1.323275856E0,-1.374999993E-4,-3.712499980E-3,-4.812499974E-3
1.325776396E0,-1.374999993E-4,5.499999970E-4,-5.774999969E-3
1.328276781E0,2.062499989E-3,4.812499974E-3,-5.774999969E-3
1.330777318E0,2.062499989E-3,4.812499974E-3,-6.874999963E-3
1.333277933E0,-1.099999994E-3,-5.499999970E-4,-6.874999963E-3
1.335778339E0,-1.374999993E-4,-3.712499980E-3,-7.974999957E-3
1.338278875E0,-2.199999988E-3,-1.649999991E-3,-6.874999963E-3
1.340779490E0,-1.099999994E-3,2.612499986E-3,-1.113750041E-2
1.343279877E0,-1.374999993E-4,4.812499974E-3,-1.113750041E-2
1.345780427E0,-1.099999994E-3,-1.649999991E-3,-9.074999951E-3
1.348280814E0,-1.099999994E-3,-3.712499980E-3,-1.003750041E-2
1.350781351E0,-1.374999993E-4,-5.499999970E-4,-1.003750041E-2
1.353281966E0,-1.374999993E-4,4.812499974E-3,-1.223750040E-2
1.355782368E0,2.062499989E-3,3.712499980E-3,-1.113750041E-2
1.358282904E0,-1.374999993E-4,-1.649999991E-3,-1.003750041E-2
1.360783519E0,-2.199999988E-3,-4.812499974E-3,-9.074999951E-3
1.363283906E0,-1.099999994E-3,-5.499999970E-4,-6.874999963E-3
1.365784443E0,-1.374999993E-4,2.612499986E-3,-7.974999957E-3
1.368284829E0,-1.374999993E-4,1.649999991E-3,-5.774999969E-3
1.370785443E0,2.062499989E-3,-1.649999991E-3,-4.812499974E-3
1.373285983E0,-1.374999993E-4,-3.712499980E-3,-4.812499974E-3
1.375786368E0,2.062499989E-3,5.499999970E-4,-3.712499980E-3
1.378286889E0,9.624999948E-4,6.874999963E-3,-3.712499980E-3
1.380787276E0,2.062499989E-3,2.612499986E-3,-6.874999963E-3
1.383287889E0,-1.374999993E-4,-1.649999991E-3,-2.612499986E-3
1.385788430E0,-1.099999994E-3,-4.812499974E-3,-2.612499986E-3
1.388288814E0,-1.374999993E-4,-2.612499986E-3,-4.812499974E-3
1.390789351E0,-1.374999993E-4,3.712499980E-3,-2.612499986E-3
1.393289966E0,9.624999948E-4,3.712499980E-3,-4.812499974E-3
1.395790353E0,9.624999948E-4,5.499999970E-4,-4.812499974E-3
1.398290918E0,-1.374999993E-4,-1.649999991E-3,-3.712499980E-3
1.400791305E0,-1.099999994E-3,-5.499999970E-4,-3.712499980E-3
1.403291918E0,-1.374999993E-4,3.712499980E-3,-3.712499980E-3
1.405792459E0,-1.099999994E-3,3.712499980E-3,-5.774999969E-3
1.408292848E0,-1.374999993E-4,-4.812499974E-3,-2.612499986E-3
1.410793385E0,-1.099999994E-3,-4.812499974E-3,-2.612499986E-3
1.413294000E0,-1.099999994E-3,-5.499999970E-4,-4.812499974E-3
1.415794387E0,2.062499989E-3,4.812499974E-3,-5.774999969E-3
1.418294951E0,-1.374999993E-4,2.612499986E-3,-3.712499980E-3
1.420795338E0,-1.374999993E-4,-1.649999991E-3,-3.712499980E-3
1.423295951E0,9.624999948E-4,-2.612499986E-3,-4.812499974E-3
1.425796492E0,2.062499989E-3,5.499999970E-4,-5.774999969E-3
1.428296871E0,2.062499989E-3,5.912499968E-3,-6.874999963E-3
1.430797408E0,-1.374999993E-4,5.499999970E-4,-6.874999963E-3
1.433297794E0,-1.099999994E-3,-3.712499980E-3,-6.874999963E-3
1.435798408E0,-2.199999988E-3,-5.774999969E-3,-9.074999951E-3
1.438298948E0,-1.099999994E-3,-1.649999991E-3,-1.113750041E-2
1.440799319E0,-1.099999994E-3,5.912499968E-3,-1.113750041E-2
1.443299932E0,9.624999948E-4,4.812499974E-3,-1.113750041E-2
1.445800473E0,9.624999948E-4,-5.499999970E-4,-1.223750040E-2
1.448300857E0,-1.099999994E-3,-3.712499980E-3,-1.333750039E-2
1.450801384E0,-1.374999993E-4,5.499999970E-4,-1.333750039E-2
1.453301999E0,-1.374999993E-4,3.712499980E-3,-1.113750041E-2
1.455802386E0,-1.374999993E-4,5.499999970E-4,-1.223750040E-2
1.458302922E0,2.062499989E-3,-2.612499986E-3,-9.074999951E-3
1.460803314E0,-1.099999994E-3,-5.774999969E-3,-1.003750041E-2
1.463303850E0,9.624999948E-4,-1.649999991E-3,-9.074999951E-3
1.465804466E0,9.624999948E-4,3.712499980E-3,-9.074999951E-3
1.468304852E0,2.062499989E-3,3.712499980E-3,-6.874999963E-3
1.470805360E0,9.624999948E-4,-1.649999991E-3,-5.774999969E-3
1.473305746E0,9.624999948E-4,-4.812499974E-3,-4.812499974E-3
1.475806360E0,9.624999948E-4,5.499999970E-4,-4.812499974E-3
1.478306900E0,-1.374999993E-4,3.712499980E-3,-4.812499974E-3
1.480807270E0,-1.099999994E-3,1.649999991E-3,-4.812499974E-3
1.483307806E0,-1.099999994E-3,-2.612499986E-3,-1.649999991E-3
1.485808422E0,-1.374999993E-4,-2.612499986E-3,-4.812499974E-3
1.488308808E0,-1.374999993E-4,-5.499999970E-4,-3.712499980E-3
1.490809345E0,9.624999948E-4,3.712499980E-3,-1.649999991E-3
1.493309960E0,-1.374999993E-4,2.612499986E-3,-5.499999970E-4
1.495810347E0,9.624999948E-4,-2.612499986E-3,-2.612499986E-3
1.498310883E0,-1.374999993E-4,-2.612499986E-3,-5.499999970E-4
1.500811270E0,9.624999948E-4,-1.649999991E-3,5.499999970E-4
1.503311898E0,-1.374999993E-4,1.649999991E-3,3.712499980E-3
1.505812439E0,-1.099999994E-3,5.499999970E-4,2.612499986E-3
1.508312823E0,-1.374999993E-4,-3.712499980E-3,4.812499974E-3
1.510813360E0,-1.374999993E-4,-3.712499980E-3,4.812499974E-3
1.513313742E0,2.062499989E-3,1.649999991E-3,5.912499968E-3
1.515814355E0,2.062499989E-3,4.812499974E-3,3.712499980E-3
1.518314895E0,3.162499983E-3,2.612499986E-3,7.974999957E-3
1.520815280E0,-1.374999993E-4,-5.499999970E-4,7.974999957E-3
1.523315816E0,-1.374999993E-4,-2.612499986E-3,6.874999963E-3
1.525816432E0,-1.374999993E-4,-5.499999970E-4,7.974999957E-3
1.528316819E0,-1.374999993E-4,2.612499986E-3,5.912499968E-3
1.530817355E0,-1.374999993E-4,2.612499986E-3,9.074999951E-3
1.533317742E0,-1.374999993E-4,-2.612499986E-3,7.974999957E-3
1.535818355E0,-1.374999993E-4,-4.812499974E-3,6.874999963E-3
1.538318895E0,9.624999948E-4,-5.499999970E-4,4.812499974E-3
1.540819280E0,2.062499989E-3,5.912499968E-3,6.874999963E-3
1.543319817E0,-1.374999993E-4,1.649999991E-3,5.912499968E-3
1.545820432E0,-1.099999994E-3,-2.612499986E-3,6.874999963E-3
1.548320819E0,-1.374999993E-4,-2.612499986E-3,6.874999963E-3
1.550821355E0,-1.374999993E-4,-5.499999970E-4,6.874999963E-3
1.553321742E0,-1.099999994E-3,1.649999991E-3,7.974999957E-3
1.555822369E0,-1.374999993E-4,1.649999991E-3,6.874999963E-3
1.558322910E0,-1.374999993E-4,-2.612499986E-3,7.974999957E-3
1.560823294E0,9.624999948E-4,-2.612499986E-3,7.974999957E-3
1.563323831E0,2.062499989E-3,5.499999970E-4,7.974999957E-3
1.565824432E0,2.062499989E-3,4.812499974E-3,6.874999963E-3
1.568324819E0,9.624999948E-4,1.649999991E-3,6.874999963E-3
1.570825355E0,-1.374999993E-4,-3.712499980E-3,5.912499968E-3
1.573325742E0,-1.099999994E-3,-5.774999969E-3,6.874999963E-3
1.575826278E0,9.624999948E-4,-1.649999991E-3,4.812499974E-3
1.578326894E0,-1.374999993E-4,2.612499986E-3,3.712499980E-3
1.580827280E0,-1.374999993E-4,2.612499986E-3,2.612499986E-3
1.583327817E0,-1.099999994E-3,-5.499999970E-4,2.612499986E-3
1.585828198E0,9.624999948E-4,-1.649999991E-3,2.612499986E-3
1.588328812E0,9.624999948E-4,5.499999970E-4,5.499999970E-4
1.590829352E0,9.624999948E-4,3.712499980E-3,5.499999970E-4
1.593329966E0,-1.099999994E-3,2.612499986E-3,2.612499986E-3
1.595830342E0,-1.099999994E-3,-2.612499986E-3,-5.499999970E-4
1.598330879E0,-1.374999993E-4,-4.812499974E-3,-1.649999991E-3
1.600831265E0,-1.099999994E-3,-5.499999970E-4,5.499999970E-4
1.603331879E0,-1.374999993E-4,2.612499986E-3,5.499999970E-4
1.605832188E0,-1.374999993E-4,1.649999991E-3,1.649999991E-3
1.608332831E0,-1.374999993E-4,-1.649999991E-3,-2.612499986E-3
1.610833369E0,2.062499989E-3,-1.649999991E-3,5.499999970E-4
1.613333985E0,-1.374999993E-4,1.649999991E-3,5.499999970E-4
1.615834294E0,-1.374999993E-4,3.712499980E-3,5.499999970E-4
1.618334923E0,9.624999948E-4,5.499999970E-4,-1.649999991E-3
1.620835309E0,9.624999948E-4,-3.712499980E-3,-2.612499986E-3
1.623335846E0,-1.374999993E-4,-2.612499986E-3,-3.712499980E-3
1.625836232E0,-1.374999993E-4,-1.649999991E-3,-3.712499980E-3
1.628336832E0,-1.374999993E-4,2.612499986E-3,-2.612499986E-3
1.630837372E0,-1.374999993E-4,2.612499986E-3,-4.812499974E-3
1.633337757E0,9.624999948E-4,-5.499999970E-4,-4.812499974E-3
1.635838293E0,-1.374999993E-4,-5.499999970E-4,-2.612499986E-3
1.638338933E0,9.624999948E-4,1.649999991E-3,-2.612499986E-3
1.640839319E0,-1.099999994E-3,3.712499980E-3,-3.712499980E-3
1.643339856E0,-1.374999993E-4,5.499999970E-4,-3.712499980E-3
1.645840242E0,-1.099999994E-3,-3.712499980E-3,-3.712499980E-3
1.648340856E0,-1.374999993E-4,-2.612499986E-3,-5.499999970E-4
1.650841381E0,-1.374999993E-4,-5.499999970E-4,1.649999991E-3
1.653341766E0,9.624999948E-4,2.612499986E-3,5.499999970E-4
1.655842379E0,-1.374999993E-4,5.499999970E-4,2.612499986E-3
1.658342689E0,9.624999948E-4,-1.649999991E-3,1.649999991E-3
1.660843288E0,2.062499989E-3,-2.612499986E-3,2.612499986E-3
1.663343827E0,9.624999948E-4,5.499999970E-4,3.712499980E-3
1.665844442E0,-1.099999994E-3,1.649999991E-3,4.812499974E-3
1.668344752E0,-1.099999994E-3,5.499999970E-4,4.812499974E-3
1.670845346E0,-1.099999994E-3,-2.612499986E-3,5.912499968E-3
1.673345733E0,-2.199999988E-3,-2.612499986E-3,5.912499968E-3
1.675846346E0,9.624999948E-4,1.649999991E-3,7.974999957E-3
1.678346887E0,-1.374999993E-4,2.612499986E-3,5.912499968E-3
1.680847271E0,-1.099999994E-3,5.499999970E-4,7.974999957E-3
1.683347803E0,-1.374999993E-4,5.499999970E-4,6.874999963E-3
1.685848190E0,-1.099999994E-3,-5.499999970E-4,7.974999957E-3
1.688348726E0,-1.374999993E-4,1.649999991E-3,9.074999951E-3
1.690849341E0,-1.099999994E-3,2.612499986E-3,1.113750041E-2
1.693349718E0,9.624999948E-4,5.499999970E-4,9.074999951E-3
1.695850254E0,-2.199999988E-3,-2.612499986E-3,1.113750041E-2
1.698350641E0,-1.374999993E-4,-1.649999991E-3,1.223750040E-2
1.700851254E0,-1.099999994E-3,5.499999970E-4,1.113750041E-2
1.703351786E0,9.624999948E-4,3.712499980E-3,1.113750041E-2
1.705852171E0,9.624999948E-4,3.712499980E-3,1.113750041E-2
1.708352784E0,9.624999948E-4,-2.612499986E-3,1.017499994E-2
1.710853324E0,-1.374999993E-4,-5.499999970E-4,1.017499994E-2
1.713353709E0,-1.374999993E-4,-5.499999970E-4,6.874999963E-3
1.715854245E0,-1.099999994E-3,5.499999970E-4,5.912499968E-3
1.718354861E0,-1.374999993E-4,-5.499999970E-4,7.974999957E-3
1.720855248E0,-1.374999993E-4,-5.499999970E-4,5.912499968E-3
1.723355784E0,-1.374999993E-4,-1.649999991E-3,4.812499974E-3
1.725856180E0,9.624999948E-4,5.499999970E-4,4.812499974E-3
1.728356793E0,-1.374999993E-4,2.612499986E-3,3.712499980E-3
1.730857333E0,2.062499989E-3,5.499999970E-4,4.812499974E-3
1.733357718E0,2.062499989E-3,-1.649999991E-3,2.612499986E-3
1.735858255E0,-1.099999994E-3,-1.649999991E-3,5.499999970E-4
1.738358865E0,9.624999948E-4,5.499999970E-4,1.649999991E-3
1.740859252E0,-2.199999988E-3,1.649999991E-3,5.499999970E-4
1.743359788E0,-1.374999993E-4,-1.649999991E-3,5.499999970E-4
1.745860175E0,-1.099999994E-3,-1.649999991E-3,-5.499999970E-4
1.748360726E0,-1.099999994E-3,-2.612499986E-3,-1.649999991E-3
1.750861342E0,9.624999948E-4,1.649999991E-3,-2.612499986E-3
1.753361728E0,9.624999948E-4,2.612499986E-3,-1.649999991E-3
1.755862342E0,-1.374999993E-4,-5.499999970E-4,-4.812499974E-3
1.758362656E0,-2.199999988E-3,-3.712499980E-3,-4.812499974E-3
1.760863270E0,-1.099999994E-3,-2.612499986E-3,-4.812499974E-3
1.763363808E0,-1.374999993E-4,5.499999970E-4,-5.774999969E-3
1.765864423E0,-1.374999993E-4,5.499999970E-4,-5.774999969E-3
1.768364733E0,-1.374999993E-4,-5.499999970E-4,-5.774999969E-3
1.770865366E0,-1.374999993E-4,-1.649999991E-3,-1.003750041E-2
1.773365752E0,-1.374999993E-4,-5.499999970E-4,-1.003750041E-2
1.775866289E0,2.062499989E-3,1.649999991E-3,-1.223750040E-2
1.778366675E0,9.624999948E-4,1.649999991E-3,-1.223750040E-2
1.780867274E0,-1.374999993E-4,-5.499999970E-4,-1.113750041E-2
1.783367814E0,9.624999948E-4,-1.649999991E-3,-1.223750040E-2
1.785868199E0,-1.374999993E-4,-5.499999970E-4,-1.429999992E-2
1.788368735E0,-1.374999993E-4,5.499999970E-4,-1.539999992E-2
1.790869351E0,-1.099999994E-3,5.499999970E-4,-1.333750039E-2
1.793369737E0,-1.099999994E-3,5.499999970E-4,-1.429999992E-2
1.795870274E0,9.624999948E-4,-1.649999991E-3,-1.429999992E-2
1.798370660E0,3.162499983E-3,-1.649999991E-3,-1.539999992E-2
1.800871274E0,9.624999948E-4,5.499999970E-4,-1.333750039E-2
1.803371814E0,-1.374999993E-4,2.612499986E-3,-1.429999992E-2
1.805872199E0,9.624999948E-4,5.499999970E-4,-1.223750040E-2
1.808372812E0,-1.374999993E-4,-2.612499986E-3,-1.113750041E-2
1.810873122E0,-1.099999994E-3,-3.712499980E-3,-1.333750039E-2
1.813373735E0,-1.374999993E-4,-1.649999991E-3,-1.223750040E-2
1.815874274E0,-1.099999994E-3,1.649999991E-3,-1.003750041E-2
1.818374889E0,-1.374999993E-4,-5.499999970E-4,-1.113750041E-2
1.820875199E0,9.624999948E-4,-1.649999991E-3,-1.003750041E-2
1.823375841E0,2.062499989E-3,5.499999970E-4,-9.074999951E-3
1.825876228E0,9.624999948E-4,1.649999991E-3,-6.874999963E-3
1.828376764E0,-1.374999993E-4,1.649999991E-3,-5.774999969E-3
1.830877151E0,-1.374999993E-4,-5.499999970E-4,-4.812499974E-3
1.833377793E0,-1.099999994E-3,-1.649999991E-3,-5.499999970E-4
1.835878334E0,-1.374999993E-4,-1.649999991E-3,-5.499999970E-4
1.838378947E0,-1.374999993E-4,5.499999970E-4,5.499999970E-4
1.840879257E0,-1.374999993E-4,5.499999970E-4,5.499999970E-4
1.843379870E0,-1.099999994E-3,5.499999970E-4,2.612499986E-3
1.845880247E0,9.624999948E-4,5.499999970E-4,4.812499974E-3
1.848380860E0,9.624999948E-4,-1.649999991E-3,5.912499968E-3
1.850881401E0,9.624999948E-4,5.499999970E-4,5.912499968E-3
1.853381785E0,-1.374999993E-4,1.649999991E-3,6.874999963E-3
1.855882308E0,-1.374999993E-4,-5.499999970E-4,6.874999963E-3
1.858382694E0,-1.374999993E-4,-2.612499986E-3,9.074999951E-3
1.860883308E0,-1.374999993E-4,-2.612499986E-3,1.017499994E-2
1.863383848E0,-2.199999988E-3,-2.612499986E-3,7.974999957E-3
1.865884233E0,-1.374999993E-4,5.499999970E-4,9.074999951E-3
1.868384769E0,2.062499989E-3,1.649999991E-3,1.113750041E-2
1.870885385E0,9.624999948E-4,1.649999991E-3,1.113750041E-2
1.873385771E0,9.624999948E-4,-5.499999970E-4,1.333750039E-2
1.875886308E0,-1.374999993E-4,5.499999970E-4,1.333750039E-2
1.878386703E0,9.624999948E-4,-5.499999970E-4,1.333750039E-2
1.880887317E0,-1.374999993E-4,-1.649999991E-3,1.443750039E-2
1.883387627E0,-1.374999993E-4,-1.649999991E-3,1.539999992E-2
1.885888240E0,-2.199999988E-3,-1.649999991E-3,1.649999991E-2
1.888388807E0,-1.099999994E-3,-5.499999970E-4,1.649999991E-2
1.890889423E0,-1.374999993E-4,1.649999991E-3,1.333750039E-2
1.893389733E0,-1.374999993E-4,1.649999991E-3,1.539999992E-2
1.895890346E0,9.624999948E-4,-1.649999991E-3,1.539999992E-2
1.898390733E0,2.062499989E-3,-1.649999991E-3,1.649999991E-2
1.900891346E0,-1.374999993E-4,-1.649999991E-3,1.649999991E-2
1.903391886E0,-1.374999993E-4,1.649999991E-3,1.539999992E-2
1.905892271E0,-1.374999993E-4,-5.499999970E-4,1.443750039E-2
1.908392889E0,-1.374999993E-4,-1.649999991E-3,1.443750039E-2
1.910893430E0,9.624999948E-4,-3.712499980E-3,1.539999992E-2
1.913393815E0,9.624999948E-4,5.499999970E-4,1.333750039E-2
1.915894351E0,9.624999948E-4,1.649999991E-3,1.333750039E-2
1.918394723E0,-1.374999993E-4,1.649999991E-3,1.223750040E-2
1.920895336E0,9.624999948E-4,1.649999991E-3,1.539999992E-2
1.923395876E0,-1.374999993E-4,5.499999970E-4,1.649999991E-2
1.925896261E0,-1.099999994E-3,-5.499999970E-4,1.443750039E-2
1.928396794E0,-1.374999993E-4,1.649999991E-3,1.333750039E-2
1.930897409E0,9.624999948E-4,5.499999970E-4,1.223750040E-2
1.933397796E0,-1.099999994E-3,-5.499999970E-4,1.443750039E-2
1.935898332E0,9.624999948E-4,-1.649999991E-3,1.539999992E-2
1.938398719E0,-1.099999994E-3,5.499999970E-4,1.443750039E-2
1.940899221E0,9.624999948E-4,2.612499986E-3,1.223750040E-2
1.943399836E0,9.624999948E-4,1.649999991E-3,1.223750040E-2
1.945900223E0,9.624999948E-4,-5.499999970E-4,1.333750039E-2
1.948400760E0,9.624999948E-4,-1.649999991E-3,1.333750039E-2
1.950901370E0,-1.374999993E-4,-2.612499986E-3,1.443750039E-2
1.953401757E0,-1.099999994E-3,-1.649999991E-3,1.113750041E-2
1.955902293E0,9.624999948E-4,1.649999991E-3,1.223750040E-2
1.958402680E0,9.624999948E-4,5.499999970E-4,1.443750039E-2
1.960903293E0,-1.374999993E-4,-3.712499980E-3,1.443750039E-2
1.963403834E0,-1.374999993E-4,-5.499999970E-4,1.333750039E-2
1.965904218E0,9.624999948E-4,1.649999991E-3,1.539999992E-2
1.968404755E0,2.062499989E-3,1.649999991E-3,1.443750039E-2
1.970905141E0,-1.374999993E-4,5.499999970E-4,1.649999991E-2
1.973405769E0,9.624999948E-4,-1.649999991E-3,1.759999990E-2
1.975906309E0,-1.099999994E-3,-5.499999970E-4,1.649999991E-2
1.978406694E0,-1.374999993E-4,5.499999970E-4,1.869999990E-2
1.980907230E0,-1.374999993E-4,1.649999991E-3,1.759999990E-2
1.983407837E0,9.624999948E-4,1.649999991E-3,1.759999990E-2
1.985908223E0,9.624999948E-4,-2.612499986E-3,1.759999990E-2
1.988408760E0,2.062499989E-3,-5.499999970E-4,1.759999990E-2
1.990909375E0,-1.099999994E-3,1.649999991E-3,1.759999990E-2
1.993409757E0,-1.374999993E-4,2.612499986E-3,1.539999992E-2
1.995910293E0,9.624999948E-4,-5.499999970E-4,1.759999990E-2
1.998410680E0,-1.374999993E-4,-1.649999991E-3,1.443750039E-2
2.000911216E0,-1.099999994E-3,-5.499999970E-4,1.113750041E-2
2.003411808E0,-2.199999988E-3,-1.649999991E-3,1.017499994E-2
2.005912194E0,-1.374999993E-4,-5.499999970E-4,7.974999957E-3
2.008412731E0,9.624999948E-4,5.499999970E-4,7.974999957E-3
2.010913117E0,-1.374999993E-4,-1.649999991E-3,1.017499994E-2
2.013413731E0,9.624999948E-4,-1.649999991E-3,7.974999957E-3
2.015914285E0,2.062499989E-3,5.499999970E-4,5.912499968E-3
2.018414670E0,-1.099999994E-3,1.649999991E-3,4.812499974E-3
2.020915206E0,9.624999948E-4,-5.499999970E-4,3.712499980E-3
2.023415822E0,-1.099999994E-3,-1.649999991E-3,1.649999991E-3
2.025916223E0,-1.374999993E-4,-1.649999991E-3,5.499999970E-4
2.028416760E0,-1.099999994E-3,1.649999991E-3,5.499999970E-4
2.030917146E0,9.624999948E-4,2.612499986E-3,-5.499999970E-4
2.033417760E0,2.062499989E-3,5.499999970E-4,-3.712499980E-3
2.035918319E0,9.624999948E-4,-5.499999970E-4,-5.774999969E-3
2.038418704E0,-1.374999993E-4,5.499999970E-4,-3.712499980E-3
2.040919317E0,-1.374999993E-4,-1.649999991E-3,-9.074999951E-3
2.043419858E0,9.624999948E-4,2.612499986E-3,-9.074999951E-3
2.045920232E0,9.624999948E-4,-5.499999970E-4,-1.003750041E-2
2.048420769E0,-1.374999993E-4,-1.649999991E-3,-1.003750041E-2
2.050921384E0,9.624999948E-4,-3.712499980E-3,-1.113750041E-2
2.053421694E0,-1.099999994E-3,5.499999970E-4,-1.113750041E-2
2.055922307E0,9.624999948E-4,3.712499980E-3,-1.333750039E-2
2.058422675E0,2.062499989E-3,-5.499999970E-4,-1.113750041E-2
2.060923211E0,9.624999948E-4,-5.499999970E-4,-1.003750041E-2
2.063423598E0,-1.374999993E-4,-5.499999970E-4,-1.003750041E-2
2.065924211E0,-1.374999993E-4,-5.499999970E-4,-1.003750041E-2
2.068424752E0,2.062499989E-3,1.649999991E-3,-9.074999951E-3
2.070925136E0,2.062499989E-3,-5.499999970E-4,-5.774999969E-3
2.073425750E0,-1.374999993E-4,-5.499999970E-4,-3.712499980E-3
2.075926290E0,-1.374999993E-4,-1.649999991E-3,-3.712499980E-3
2.078426675E0,9.624999948E-4,5.499999970E-4,-3.712499980E-3
2.080927221E0,-1.374999993E-4,1.649999991E-3,-5.499999970E-4
2.083427608E0,-1.374999993E-4,5.499999970E-4,-5.499999970E-4
2.085928221E0,9.624999948E-4,-5.499999970E-4,-5.499999970E-4
2.088428762E0,-1.374999993E-4,-1.649999991E-3,5.499999970E-4
2.090929132E0,9.624999948E-4,5.499999970E-4,-5.499999970E-4
2.093429745E0,-1.099999994E-3,5.499999970E-4,5.499999970E-4
2.095930285E0,-1.099999994E-3,-5.499999970E-4,2.612499986E-3
2.098430670E0,-1.374999993E-4,-5.499999970E-4,2.612499986E-3
2.100931206E0,-2.199999988E-3,-1.649999991E-3,4.812499974E-3
2.103431822E0,-1.099999994E-3,-5.499999970E-4,3.712499980E-3
2.105932209E0,2.062499989E-3,5.499999970E-4,2.612499986E-3
2.108432745E0,9.624999948E-4,5.499999970E-4,3.712499980E-3
2.110933132E0,9.624999948E-4,-5.499999970E-4,3.712499980E-3
2.113433745E0,9.624999948E-4,-1.649999991E-3,4.812499974E-3
2.115934285E0,-1.374999993E-4,5.499999970E-4,4.812499974E-3
2.118434670E0,-1.374999993E-4,-5.499999970E-4,5.912499968E-3
2.120935207E0,-1.374999993E-4,5.499999970E-4,6.874999963E-3
2.123435598E0,-1.374999993E-4,-1.649999991E-3,6.874999963E-3
2.125936212E0,-1.374999993E-4,-5.499999970E-4,4.812499974E-3
2.128436752E0,-1.374999993E-4,3.712499980E-3,6.874999963E-3
2.130937137E0,9.624999948E-4,2.612499986E-3,3.712499980E-3
2.133437653E0,-1.374999993E-4,-5.499999970E-4,4.812499974E-3
2.135938268E0,-1.374999993E-4,-5.499999970E-4,2.612499986E-3
2.138438655E0,-1.374999993E-4,-5.499999970E-4,5.499999970E-4
2.140939192E0,-1.374999993E-4,5.499999970E-4,2.612499986E-3
2.143439558E0,-1.374999993E-4,5.499999970E-4,5.499999970E-4
2.145940172E0,-1.374999993E-4,-1.649999991E-3,-5.499999970E-4
2.148440712E0,-1.374999993E-4,-4.812499974E-3,5.499999970E-4
2.150941325E0,-1.099999994E-3,-5.499999970E-4,-1.649999991E-3
2.153441640E0,9.624999948E-4,-5.499999970E-4,-2.612499986E-3
2.155942254E0,9.624999948E-4,2.612499986E-3,-1.649999991E-3
2.158442640E0,-1.374999993E-4,5.499999970E-4,-5.499999970E-4
2.160943254E0,-1.374999993E-4,-1.649999991E-3,5.499999970E-4
2.163443563E0,-1.099999994E-3,-1.649999991E-3,5.499999970E-4
2.165944168E0,-1.099999994E-3,-1.649999991E-3,-2.612499986E-3
2.168444706E0,-1.374999993E-4,1.649999991E-3,-1.649999991E-3
2.170945093E0,9.624999948E-4,-5.499999970E-4,5.499999970E-4
2.173445629E0,-1.099999994E-3,-5.499999970E-4,-5.499999970E-4
2.175946259E0,9.624999948E-4,5.499999970E-4,-5.499999970E-4
2.178446645E0,9.624999948E-4,5.499999970E-4,-1.649999991E-3
2.180947182E0,-1.374999993E-4,3.712499980E-3,5.499999970E-4
2.183447568E0,-1.374999993E-4,-5.499999970E-4,-1.649999991E-3
2.185948167E0,9.624999948E-4,-1.649999991E-3,-2.612499986E-3
2.188448707E0,-1.374999993E-4,-2.612499986E-3,-3.712499980E-3
2.190949092E0,-1.099999994E-3,-5.499999970E-4,-4.812499974E-3
2.193449705E0,9.624999948E-4,5.499999970E-4,-4.812499974E-3
2.195949991E0,-1.374999993E-4,5.499999970E-4,-5.774999969E-3
2.198450604E0,-1.374999993E-4,-1.649999991E-3,-6.874999963E-3
2.200951143E0,-1.099999994E-3,-1.649999991E-3,-7.974999957E-3
2.203451758E0,-1.374999993E-4,1.649999991E-3,-5.774999969E-3
2.205952040E0,2.062499989E-3,1.649999991E-3,-5.774999969E-3
2.208452653E0,-1.374999993E-4,-5.499999970E-4,-4.812499974E-3
2.210953040E0,-1.374999993E-4,-2.612499986E-3,-3.712499980E-3
2.213453653E0,-1.099999994E-3,-1.649999991E-3,-2.612499986E-3
2.215953963E0,-1.374999993E-4,1.649999991E-3,-5.499999970E-4
2.218454571E0,-1.374999993E-4,2.612499986E-3,5.499999970E-4
2.220955110E0,9.624999948E-4,-5.499999970E-4,5.499999970E-4
2.223455725E0,-2.199999988E-3,-5.499999970E-4,1.649999991E-3
2.225956035E0,-1.374999993E-4,-5.499999970E-4,1.649999991E-3
2.228456662E0,-1.374999993E-4,3.712499980E-3,1.649999991E-3
2.230957049E0,9.624999948E-4,2.612499986E-3,1.649999991E-3
2.233457662E0,-1.374999993E-4,-1.649999991E-3,2.612499986E-3
2.235957972E0,9.624999948E-4,-3.712499980E-3,1.649999991E-3
2.238458585E0,-2.199999988E-3,-1.649999991E-3,5.499999970E-4
2.240959124E0,-1.099999994E-3,2.612499986E-3,1.649999991E-3
2.243459510E0,9.624999948E-4,1.649999991E-3,3.712499980E-3
2.245960124E0,9.624999948E-4,5.499999970E-4,1.649999991E-3
2.248460654E0,-1.374999993E-4,-1.649999991E-3,3.712499980E-3
2.250961039E0,-1.374999993E-4,-1.649999991E-3,3.712499980E-3
2.253461575E0,9.624999948E-4,1.649999991E-3,4.812499974E-3
2.255962191E0,9.624999948E-4,1.649999991E-3,5.912499968E-3
2.258462577E0,9.624999948E-4,5.499999970E-4,5.912499968E-3
2.260963114E0,-1.099999994E-3,-3.712499980E-3,5.912499968E-3
2.263463500E0,-1.099999994E-3,-1.649999991E-3,6.874999963E-3
2.265964114E0,9.624999948E-4,5.499999970E-4,7.974999957E-3
2.268464654E0,9.624999948E-4,2.612499986E-3,7.974999957E-3
2.270965030E0,2.062499989E-3,-1.649999991E-3,6.874999963E-3
2.273465566E0,9.624999948E-4,-2.612499986E-3,6.874999963E-3
2.275966182E0,9.624999948E-4,5.499999970E-4,6.874999963E-3
2.278466492E0,2.062499989E-3,3.712499980E-3,5.912499968E-3
2.280967105E0,-1.099999994E-3,2.612499986E-3,3.712499980E-3
2.283467492E0,9.624999948E-4,-1.649999991E-3,3.712499980E-3
2.285968105E0,-1.374999993E-4,-3.712499980E-3,2.612499986E-3
2.288468645E0,-1.374999993E-4,-1.649999991E-3,1.649999991E-3
2.290969030E0,-1.374999993E-4,-5.499999970E-4,1.649999991E-3
2.293469566E0,9.624999948E-4,1.649999991E-3,1.649999991E-3
2.295970182E0,2.062499989E-3,-5.499999970E-4,-1.649999991E-3
2.298470568E0,-1.374999993E-4,-2.612499986E-3,5.499999970E-4
2.300971105E0,-1.374999993E-4,-1.649999991E-3,1.649999991E-3
2.303471724E0,-1.374999993E-4,5.499999970E-4,5.499999970E-4
2.305972034E0,9.624999948E-4,-5.499999970E-4,1.649999991E-3
2.308472647E0,-2.199999988E-3,-5.499999970E-4,1.649999991E-3
2.310973034E0,-1.374999993E-4,-5.499999970E-4,1.649999991E-3
2.313473576E0,-1.099999994E-3,-2.612499986E-3,1.649999991E-3
2.315973962E0,-1.099999994E-3,2.612499986E-3,1.649999991E-3
2.318474576E0,-1.374999993E-4,2.612499986E-3,3.712499980E-3
2.320975116E0,-1.099999994E-3,-5.499999970E-4,2.612499986E-3
2.323475501E0,2.062499989E-3,-5.499999970E-4,2.612499986E-3
2.325976037E0,9.624999948E-4,-5.499999970E-4,2.612499986E-3
2.328476652E0,9.624999948E-4,2.612499986E-3,3.712499980E-3
2.330977039E0,-1.099999994E-3,5.499999970E-4,1.649999991E-3
2.333477591E0,-1.099999994E-3,-1.649999991E-3,2.612499986E-3
2.335978206E0,-1.099999994E-3,-1.649999991E-3,5.499999970E-4
2.338478593E0,-1.374999993E-4,-1.649999991E-3,2.612499986E-3
2.340979129E0,-1.374999993E-4,5.499999970E-4,1.649999991E-3
2.343479506E0,9.624999948E-4,1.649999991E-3,2.612499986E-3
2.345980119E0,9.624999948E-4,-2.612499986E-3,2.612499986E-3
2.348480660E0,-1.099999994E-3,-2.612499986E-3,1.649999991E-3
2.350981044E0,-1.374999993E-4,5.499999970E-4,3.712499980E-3
2.353481605E0,-1.374999993E-4,1.649999991E-3,4.812499974E-3
2.355982220E0,9.624999948E-4,5.499999970E-4,1.649999991E-3
2.358482607E0,-1.374999993E-4,-1.649999991E-3,2.612499986E-3
2.360983143E0,-1.374999993E-4,-1.649999991E-3,5.499999970E-4
2.363483530E0,9.624999948E-4,-5.499999970E-4,2.612499986E-3
2.365984090E0,3.162499983E-3,2.612499986E-3,5.499999970E-4
2.368484477E0,9.624999948E-4,5.499999970E-4,-5.499999970E-4
2.370985090E0,-1.374999993E-4,5.499999970E-4,-2.612499986E-3
2.373485631E0,-1.374999993E-4,-1.649999991E-3,-3.712499980E-3
2.375986020E0,-1.374999993E-4,-5.499999970E-4,-5.774999969E-3
2.378486557E0,2.062499989E-3,1.649999991E-3,-4.812499974E-3
2.380987172E0,-1.099999994E-3,1.649999991E-3,-1.003750041E-2
2.383487559E0,-1.099999994E-3,-5.499999970E-4,-1.429999992E-2
2.385988158E0,-1.374999993E-4,-2.612499986E-3,-1.429999992E-2
2.388488699E0,-1.374999993E-4,-5.499999970E-4,-1.759999990E-2
2.390989083E0,2.062499989E-3,1.649999991E-3,-1.759999990E-2
2.393489620E0,-1.374999993E-4,1.649999991E-3,-2.076249942E-2
2.395989991E0,-1.099999994E-3,-5.499999970E-4,-2.186249942E-2
2.398490605E0,9.624999948E-4,-1.649999991E-3,-2.282499894E-2
2.400991145E0,-1.374999993E-4,-1.649999991E-3,-2.392499894E-2
2.403491530E0,-1.374999993E-4,-5.499999970E-4,-2.612499893E-2
2.405992071E0,-2.199999988E-3,5.499999970E-4,-2.708750032E-2
2.408492687E0,-1.099999994E-3,-2.612499986E-3,-2.612499893E-2
2.410993073E0,9.624999948E-4,-5.499999970E-4,-2.818750031E-2
2.413493610E0,9.624999948E-4,1.649999991E-3,-2.928750031E-2
2.415993977E0,-1.374999993E-4,2.612499986E-3,-2.818750031E-2
2.418494591E0,-1.374999993E-4,5.499999970E-4,-3.038750030E-2
2.420995131E0,-1.099999994E-3,5.499999970E-4,-3.135000169E-2
2.423495516E0,-1.374999993E-4,-1.649999991E-3,-3.038750030E-2
2.425996066E0,-1.374999993E-4,5.499999970E-4,-3.038750030E-2
2.428496682E0,-1.374999993E-4,-5.499999970E-4,-3.355000168E-2
2.430997068E0,-1.374999993E-4,1.649999991E-3,-3.244999796E-2
2.433497605E0,-1.099999994E-3,-1.649999991E-3,-3.355000168E-2
2.435997991E0,9.624999948E-4,-5.499999970E-4,-3.135000169E-2
2.438498615E0,-1.374999993E-4,5.499999970E-4,-3.135000169E-2
2.440999155E0,-1.374999993E-4,2.612499986E-3,-3.038750030E-2
2.443499540E0,-1.099999994E-3,5.499999970E-4,-2.928750031E-2
2.446000076E0,-1.099999994E-3,-1.649999991E-3,-3.038750030E-2
2.448500477E0,9.624999948E-4,-1.649999991E-3,-2.612499893E-2
2.451001090E0,9.624999948E-4,-1.649999991E-3,-2.502499893E-2
2.453501631E0,-1.374999993E-4,2.612499986E-3,-2.186249942E-2
2.456002015E0,-1.374999993E-4,1.649999991E-3,-2.392499894E-2
2.458502624E0,9.624999948E-4,-3.712499980E-3,-2.076249942E-2
2.461003164E0,-1.374999993E-4,-1.649999991E-3,-2.076249942E-2
2.463503549E0,2.062499989E-3,5.499999970E-4,-1.649999991E-2
2.466004085E0,9.624999948E-4,2.612499986E-3,-1.759999990E-2
2.468504717E0,9.624999948E-4,1.649999991E-3,-1.856249943E-2
2.471005103E0,-1.374999993E-4,-1.649999991E-3,-1.759999990E-2
2.473505640E0,-1.374999993E-4,-5.499999970E-4,-1.649999991E-2
2.476006027E0,-1.374999993E-4,-5.499999970E-4,-1.856249943E-2
2.478506640E0,-1.099999994E-3,1.649999991E-3,-1.856249943E-2
2.481007189E0,2.062499989E-3,1.649999991E-3,-1.966249943E-2
2.483507574E0,-1.099999994E-3,-1.649999991E-3,-1.966249943E-2
2.486008110E0,9.624999948E-4,-1.649999991E-3,-2.076249942E-2
2.488508726E0,2.062499989E-3,-5.499999970E-4,-2.282499894E-2
2.491009107E0,9.624999948E-4,1.649999991E-3,-2.392499894E-2
2.493509644E0,-2.199999988E-3,5.499999970E-4,-2.502499893E-2
2.496010031E0,-1.374999993E-4,-1.649999991E-3,-2.502499893E-2
2.498510644E0,9.624999948E-4,-4.812499974E-3,-2.612499893E-2
2.501011184E0,2.062499989E-3,-5.499999970E-4,-2.708750032E-2
2.503511565E0,-1.374999993E-4,-5.499999970E-4,-2.818750031E-2
2.506012102E0,-1.374999993E-4,-5.499999970E-4,-3.244999796E-2
2.508512488E0,-1.374999993E-4,5.499999970E-4,-3.038750030E-2
2.511013102E0,9.624999948E-4,-3.712499980E-3,-3.135000169E-2
2.513513632E0,-1.374999993E-4,5.499999970E-4,-3.451250121E-2
2.516014017E0,9.624999948E-4,5.499999970E-4,-3.451250121E-2
2.518514553E0,-1.374999993E-4,1.649999991E-3,-3.987500072E-2
2.521015168E0,-1.099999994E-3,5.499999970E-4,-4.207500070E-2
2.523515540E0,-1.374999993E-4,-3.712499980E-3,-4.523750022E-2
2.526016154E0,2.062499989E-3,-1.649999991E-3,-4.949999973E-2
2.528516694E0,-1.374999993E-4,1.649999991E-3,-5.376249924E-2
2.531017079E0,-1.099999994E-3,2.612499986E-3,-5.898749828E-2
2.533517615E0,9.624999948E-4,-1.649999991E-3,-6.008749828E-2
2.536018017E0,-1.099999994E-3,-1.649999991E-3,-6.435000151E-2
2.538518553E0,9.624999948E-4,5.499999970E-4,-6.655000150E-2
2.541019169E0,9.624999948E-4,5.499999970E-4,-6.861250103E-2
2.543519555E0,9.624999948E-4,-1.649999991E-3,-7.081250101E-2
2.546020106E0,-1.099999994E-3,-3.712499980E-3,-7.397499681E-2
2.548520492E0,-1.374999993E-4,-1.649999991E-3,-7.603749633E-2
2.551021106E0,-1.374999993E-4,-1.649999991E-3,-7.823749632E-2
2.553521646E0,2.062499989E-3,1.649999991E-3,-7.933750004E-2
2.556022065E0,9.624999948E-4,1.649999991E-3,-8.139999956E-2
2.558522601E0,9.624999948E-4,-1.649999991E-3,-8.346249908E-2
2.561023217E0,9.624999948E-4,-3.712499980E-3,-8.346249908E-2
2.563523603E0,-1.374999993E-4,-1.649999991E-3,-8.346249908E-2
2.566024130E0,-1.374999993E-4,5.499999970E-4,-8.772499859E-2
2.568524745E0,9.624999948E-4,5.499999970E-4,-8.882500231E-2
2.571025132E0,-1.374999993E-4,5.499999970E-4,-8.676250279E-2
2.573525668E0,-1.374999993E-4,-2.612499986E-3,-8.566249907E-2
2.576026055E0,2.062499989E-3,-5.499999970E-4,-8.566249907E-2
2.578526644E0,-1.374999993E-4,5.499999970E-4,-8.676250279E-2
2.581027185E0,-1.374999993E-4,2.612499986E-3,-8.772499859E-2
2.583527569E0,-1.374999993E-4,-1.649999991E-3,-8.456250280E-2
2.586028106E0,-1.099999994E-3,-4.812499974E-3,-8.249999583E-2
2.588528735E0,-1.374999993E-4,-5.499999970E-4,-8.030000329E-2
2.591029045E0,-1.374999993E-4,5.499999970E-4,-8.139999956E-2
2.593529658E0,-1.374999993E-4,5.499999970E-4,-7.713750005E-2
2.596030045E0,-1.099999994E-3,-5.499999970E-4,-7.823749632E-2
2.598530586E0,-1.099999994E-3,-2.612499986E-3,-7.287500054E-2
2.601031202E0,2.062499989E-3,-5.499999970E-4,-7.177499682E-2
2.603531588E0,2.062499989E-3,5.499999970E-4,-7.177499682E-2
2.606032125E0,9.624999948E-4,5.499999970E-4,-6.971249729E-2
2.608532511E0,-1.099999994E-3,-1.649999991E-3,-6.861250103E-2
2.611033115E0,-1.099999994E-3,-5.499999970E-4,-6.544999778E-2
2.613533655E0,9.624999948E-4,-1.649999991E-3,-6.655000150E-2
2.616034040E0,2.062499989E-3,1.649999991E-3,-6.861250103E-2
2.618534576E0,-1.099999994E-3,2.612499986E-3,-7.081250101E-2
2.621035192E0,9.624999948E-4,-2.612499986E-3,-6.861250103E-2
2.623535578E0,9.624999948E-4,-1.649999991E-3,-7.081250101E-2
2.626036115E0,9.624999948E-4,-1.649999991E-3,-7.081250101E-2
2.628536501E0,-1.374999993E-4,5.499999970E-4,-7.287500054E-2
2.631037091E0,-1.374999993E-4,5.499999970E-4,-7.603749633E-2
2.633537631E0,-1.374999993E-4,-5.499999970E-4,-7.507500052E-2
2.636037996E0,9.624999948E-4,-2.612499986E-3,-7.933750004E-2
2.638538532E0,-1.374999993E-4,-3.712499980E-3,-7.933750004E-2
2.641039148E0,-1.374999993E-4,-1.649999991E-3,-8.249999583E-2
2.643539534E0,-1.374999993E-4,5.499999970E-4,-8.456250280E-2
2.646040071E0,-1.374999993E-4,-5.499999970E-4,-8.676250279E-2
2.648540686E0,9.624999948E-4,-3.712499980E-3,-8.676250279E-2
2.651041064E0,-1.374999993E-4,5.499999970E-4,-9.102500230E-2
2.653541600E0,-1.099999994E-3,5.499999970E-4,-9.418749809E-2
2.656041987E0,9.624999948E-4,5.499999970E-4,-9.844999760E-2
2.658542600E0,2.062499989E-3,-1.649999991E-3,-1.027124971E-1
2.661042905E0,-1.374999993E-4,-1.649999991E-3,-1.058750004E-1
2.663543518E0,9.624999948E-4,-1.649999991E-3,-1.090374961E-1
2.666044057E0,-1.374999993E-4,-5.499999970E-4,-1.155000031E-1
2.668544672E0,9.624999948E-4,1.649999991E-3,-1.207249984E-1
2.671044967E0,-1.374999993E-4,-2.612499986E-3,-1.271875054E-1
2.673545580E0,-1.374999993E-4,-1.649999991E-3,-1.292500049E-1
2.676045967E0,-1.374999993E-4,-5.499999970E-4,-1.357125044E-1
2.678546503E0,-2.199999988E-3,-5.499999970E-4,-1.420374960E-1
2.681046890E0,-1.374999993E-4,5.499999970E-4,-1.442375034E-1
2.683547532E0,-1.099999994E-3,-5.499999970E-4,-1.473999918E-1
2.686048073E0,-1.099999994E-3,-2.612499986E-3,-1.494625062E-1
2.688548458E0,-1.374999993E-4,-2.612499986E-3,-1.548250020E-1
2.691048994E0,9.624999948E-4,5.499999970E-4,-1.570249945E-1
2.693549614E0,-1.374999993E-4,5.499999970E-4,-1.601874977E-1
2.696050001E0,-1.374999993E-4,-5.499999970E-4,-1.579875052E-1
2.698550614E0,9.624999948E-4,-2.612499986E-3,-1.590874940E-1
2.701051155E0,9.624999948E-4,-1.649999991E-3,-1.622499973E-1
2.703551511E0,9.624999948E-4,5.499999970E-4,-1.644500047E-1
2.706052047E0,-1.374999993E-4,5.499999970E-4,-1.644500047E-1
2.708552434E0,9.624999948E-4,1.649999991E-3,-1.644500047E-1
2.711053047E0,-1.374999993E-4,-2.612499986E-3,-1.654125005E-1
2.713553573E0,-1.374999993E-4,-5.499999970E-4,-1.654125005E-1
2.716053958E0,9.624999948E-4,5.499999970E-4,-1.665125042E-1
2.718554495E0,-1.374999993E-4,2.612499986E-3,-1.665125042E-1
2.721055110E0,-1.374999993E-4,1.649999991E-3,-1.654125005E-1
2.723555501E0,9.624999948E-4,-1.649999991E-3,-1.633500010E-1
2.726056037E0,-1.374999993E-4,-5.499999970E-4,-1.644500047E-1
2.728556424E0,-1.374999993E-4,-5.499999970E-4,-1.633500010E-1
2.731057037E0,9.624999948E-4,5.499999970E-4,-1.611499935E-1
2.733557352E0,-1.374999993E-4,-2.612499986E-3,-1.570249945E-1
2.736057965E0,9.624999948E-4,-2.612499986E-3,-1.548250020E-1
2.738558504E0,-1.099999994E-3,-2.612499986E-3,-1.494625062E-1
2.741059119E0,-1.374999993E-4,-5.499999970E-4,-1.473999918E-1
2.743559506E0,9.624999948E-4,5.499999970E-4,-1.420374960E-1
2.746060052E0,2.062499989E-3,5.499999970E-4,-1.377750039E-1
2.748560439E0,2.062499989E-3,-1.649999991E-3,-1.357125044E-1
2.751061052E0,-1.374999993E-4,-3.712499980E-3,-1.303499937E-1
2.753561593E0,-1.374999993E-4,-5.499999970E-4,-1.271875054E-1
2.756061981E0,-1.374999993E-4,-5.499999970E-4,-1.260875016E-1
2.758562518E0,2.062499989E-3,1.649999991E-3,-1.218250021E-1
2.761062904E0,9.624999948E-4,-5.499999970E-4,-1.186624989E-1
2.763563518E0,9.624999948E-4,-1.649999991E-3,-1.155000031E-1
2.766064063E0,-1.374999993E-4,5.499999970E-4,-1.143999994E-1
2.768564448E0,9.624999948E-4,5.499999970E-4,-1.155000031E-1
2.771064984E0,9.624999948E-4,-5.499999970E-4,-1.121999994E-1
2.773565600E0,9.624999948E-4,-5.499999970E-4,-1.112374961E-1
2.776065986E0,-1.374999993E-4,-5.499999970E-4,-1.101374999E-1
2.778566547E0,-1.374999993E-4,5.499999970E-4,-1.101374999E-1
2.781067162E0,9.624999948E-4,-5.499999970E-4,-1.112374961E-1
2.783567549E0,-1.374999993E-4,-1.649999991E-3,-1.112374961E-1
2.786068085E0,-1.374999993E-4,-2.612499986E-3,-1.112374961E-1
2.788568468E0,9.624999948E-4,-5.499999970E-4,-1.112374961E-1
2.791069004E0,-1.374999993E-4,-5.499999970E-4,-1.143999994E-1
2.793569620E0,2.062499989E-3,1.649999991E-3,-1.155000031E-1
2.796070006E0,9.624999948E-4,5.499999970E-4,-1.155000031E-1
2.798570552E0,9.624999948E-4,-1.649999991E-3,-1.207249984E-1
2.801071167E0,-1.374999993E-4,-3.712499980E-3,-1.218250021E-1
2.803571554E0,-1.099999994E-3,-5.499999970E-4,-1.249874979E-1
2.806072090E0,-1.099999994E-3,-5.499999970E-4,-1.282874942E-1
2.808572477E0,9.624999948E-4,1.649999991E-3,-1.303499937E-1
2.811073090E0,2.062499989E-3,-5.499999970E-4,-1.335124969E-1
2.813573631E0,-1.374999993E-4,-5.499999970E-4,-1.377750039E-1
2.816074015E0,9.624999948E-4,5.499999970E-4,-1.420374960E-1
2.818574552E0,-1.374999993E-4,5.499999970E-4,-1.451999992E-1
2.821074938E0,9.624999948E-4,5.499999970E-4,-1.451999992E-1
2.823575552E0,-1.374999993E-4,-1.649999991E-3,-1.463000029E-1
2.826076092E0,9.624999948E-4,-2.612499986E-3,-1.473999918E-1
2.828576477E0,9.624999948E-4,5.499999970E-4,-1.473999918E-1
2.831077027E0,-1.374999993E-4,-5.499999970E-4,-1.463000029E-1
2.833577643E0,9.624999948E-4,-5.499999970E-4,-1.442375034E-1
2.836078029E0,9.624999948E-4,-2.612499986E-3,-1.420374960E-1
2.838578566E0,9.624999948E-4,-5.499999970E-4,-1.409374923E-1
2.841078952E0,-1.374999993E-4,5.499999970E-4,-1.377750039E-1
2.843579489E0,2.062499989E-3,5.499999970E-4,-1.346125007E-1
2.846080104E0,2.062499989E-3,5.499999970E-4,-1.314499974E-1
2.848580491E0,2.062499989E-3,-2.612499986E-3,-1.282874942E-1
2.851080999E0,9.624999948E-4,-1.649999991E-3,-1.240250021E-1
2.853581615E0,2.062499989E-3,-2.612499986E-3,-1.229249984E-1
2.856082001E0,9.624999948E-4,5.499999970E-4,-1.186624989E-1
2.858582538E0,-1.374999993E-4,-5.499999970E-4,-1.132999957E-1
2.861082925E0,-1.374999993E-4,-5.499999970E-4,-1.101374999E-1
2.863583538E0,9.624999948E-4,5.499999970E-4,-1.069749966E-1
2.866084078E0,-1.374999993E-4,-5.499999970E-4,-1.027124971E-1
2.868584463E0,9.624999948E-4,1.649999991E-3,-1.005124971E-1
2.871085003E0,9.624999948E-4,-5.499999970E-4,-9.735000134E-2
2.873585619E0,2.062499989E-3,-5.499999970E-4,-9.528750181E-2
2.876086005E0,2.062499989E-3,-2.612499986E-3,-9.198749810E-2
2.878586542E0,-1.374999993E-4,5.499999970E-4,-9.102500230E-2
2.881086929E0,2.062499989E-3,5.499999970E-4,-8.882500231E-2
2.883587557E0,9.624999948E-4,5.499999970E-4,-8.992499858E-2
2.886088097E0,2.062499989E-3,-5.499999970E-4,-8.992499858E-2
2.888588482E0,9.624999948E-4,-2.612499986E-3,-8.772499859E-2
2.891089095E0,9.624999948E-4,5.499999970E-4,-9.198749810E-2
2.893589621E0,-1.374999993E-4,1.649999991E-3,-9.198749810E-2
2.896090006E0,9.624999948E-4,-1.649999991E-3,-9.308750182E-2
2.898590542E0,9.624999948E-4,-5.499999970E-4,-9.528750181E-2
2.901091157E0,9.624999948E-4,-1.649999991E-3,-9.735000134E-2
2.903591487E0,-1.374999993E-4,1.649999991E-3,-9.955000132E-2
2.906092100E0,9.624999948E-4,-5.499999970E-4,-1.027124971E-1
2.908592487E0,2.062499989E-3,5.499999970E-4,-1.058750004E-1
2.911093024E0,3.162499983E-3,-1.649999991E-3,-1.080750003E-1
2.913593419E0,9.624999948E-4,-2.612499986E-3,-1.112374961E-1
2.916094033E0,9.624999948E-4,5.499999970E-4,-1.143999994E-1
2.918594573E0,-1.374999993E-4,5.499999970E-4,-1.175625026E-1
2.921094958E0,9.624999948E-4,5.499999970E-4,-1.175625026E-1
2.923595485E0,-1.374999993E-4,-1.649999991E-3,-1.229249984E-1
2.926096101E0,9.624999948E-4,-1.649999991E-3,-1.249874979E-1
2.928596487E0,2.062499989E-3,5.499999970E-4,-1.240250021E-1
2.931097024E0,2.062499989E-3,5.499999970E-4,-1.249874979E-1
2.933597410E0,2.062499989E-3,-5.499999970E-4,-1.271875054E-1
2.936098023E0,9.624999948E-4,-2.612499986E-3,-1.271875054E-1
2.938598563E0,9.624999948E-4,-5.499999970E-4,-1.303499937E-1
2.941098948E0,9.624999948E-4,-5.499999970E-4,-1.314499974E-1
2.943599561E0,9.624999948E-4,1.649999991E-3,-1.303499937E-1
2.946100088E0,9.624999948E-4,-5.499999970E-4,-1.314499974E-1
2.948600472E0,9.624999948E-4,-1.649999991E-3,-1.325500011E-1
2.951101009E0,9.624999948E-4,-2.612499986E-3,-1.335124969E-1
2.953601624E0,9.624999948E-4,5.499999970E-4,-1.335124969E-1
2.956102011E0,9.624999948E-4,1.649999991E-3,-1.335124969E-1
2.958602547E0,-1.374999993E-4,1.649999991E-3,-1.346125007E-1
2.961102934E0,9.624999948E-4,-1.649999991E-3,-1.357125044E-1
2.963603547E0,-1.374999993E-4,-2.612499986E-3,-1.366750002E-1
2.966104107E0,9.624999948E-4,-5.499999970E-4,-1.388749927E-1
2.968604491E0,9.624999948E-4,1.649999991E-3,-1.357125044E-1
2.971105028E0,9.624999948E-4,-5.499999970E-4,-1.377750039E-1
2.973605414E0,2.062499989E-3,-1.649999991E-3,-1.377750039E-1
2.976106028E0,-1.374999993E-4,-1.649999991E-3,-1.366750002E-1
2.978606583E0,9.624999948E-4,1.649999991E-3,-1.377750039E-1
2.981106968E0,9.624999948E-4,1.649999991E-3,-1.366750002E-1
2.983607504E0,9.624999948E-4,5.499999970E-4,-1.399749964E-1
2.986108120E0,9.624999948E-4,-5.499999970E-4,-1.399749964E-1
2.988608506E0,-1.099999994E-3,-2.612499986E-3,-1.377750039E-1
2.991109043E0,9.624999948E-4,5.499999970E-4,-1.399749964E-1
2.993609429E0,2.062499989E-3,1.649999991E-3,-1.399749964E-1
2.996110043E0,9.624999948E-4,-5.499999970E-4,-1.377750039E-1
2.998610574E0,9.624999948E-4,-1.649999991E-3,-1.377750039E-1
3.001110959E0,-1.374999993E-4,-1.649999991E-3,-1.399749964E-1
3.003611495E0,-1.374999993E-4,5.499999970E-4,-1.377750039E-1
3.006112111E0,9.624999948E-4,1.649999991E-3,-1.377750039E-1
3.008612511E0,-1.374999993E-4,5.499999970E-4,-1.366750002E-1
3.011113048E0,9.624999948E-4,-1.649999991E-3,-1.357125044E-1
3.013613434E0,-1.374999993E-4,-2.612499986E-3,-1.346125007E-1
3.016114048E0,-1.099999994E-3,-5.499999970E-4,-1.335124969E-1
3.018614588E0,-1.374999993E-4,2.612499986E-3,-1.314499974E-1
3.021114968E0,-1.099999994E-3,5.499999970E-4,-1.303499937E-1
3.023615504E0,-1.374999993E-4,-5.499999970E-4,-1.282874942E-1
3.026116120E0,-1.374999993E-4,-2.612499986E-3,-1.282874942E-1
3.028616506E0,9.624999948E-4,-1.649999991E-3,-1.271875054E-1
3.031117039E0,-1.374999993E-4,1.649999991E-3,-1.271875054E-1
3.033617654E0,-1.099999994E-3,1.649999991E-3,-1.282874942E-1
3.036118041E0,-1.374999993E-4,-3.712499980E-3,-1.282874942E-1
3.038618577E0,-1.374999993E-4,-1.649999991E-3,-1.282874942E-1
3.041118959E0,9.624999948E-4,-5.499999970E-4,-1.303499937E-1
3.043619572E0,9.624999948E-4,5.499999970E-4,-1.292500049E-1
3.046120113E0,-1.099999994E-3,2.612499986E-3,-1.325500011E-1
3.048620497E0,-1.374999993E-4,-2.612499986E-3,-1.314499974E-1
3.051121034E0,9.624999948E-4,-2.612499986E-3,-1.314499974E-1
3.053621649E0,-1.099999994E-3,-1.649999991E-3,-1.325500011E-1
3.056121959E0,9.624999948E-4,1.649999991E-3,-1.325500011E-1
3.058622572E0,-1.374999993E-4,2.612499986E-3,-1.335124969E-1
3.061122959E0,-1.374999993E-4,-5.499999970E-4,-1.335124969E-1
3.063623557E0,-1.374999993E-4,-5.499999970E-4,-1.325500011E-1
3.066123867E0,-1.374999993E-4,-5.499999970E-4,-1.325500011E-1
3.068624480E0,9.624999948E-4,2.612499986E-3,-1.335124969E-1
3.071125019E0,-1.374999993E-4,1.649999991E-3,-1.325500011E-1
3.073625377E0,-1.374999993E-4,-1.649999991E-3,-1.325500011E-1
3.076125990E0,-1.099999994E-3,-5.499999970E-4,-1.335124969E-1
3.078626530E0,-1.374999993E-4,-5.499999970E-4,-1.335124969E-1
3.081126915E0,-1.374999993E-4,1.649999991E-3,-1.325500011E-1
3.083627438E0,9.624999948E-4,1.649999991E-3,-1.325500011E-1
3.086128053E0,-1.099999994E-3,-2.612499986E-3,-1.335124969E-1
3.088628440E0,-1.099999994E-3,-5.499999970E-4,-1.335124969E-1
3.091128976E0,-1.099999994E-3,-1.649999991E-3,-1.325500011E-1
3.093629363E0,-1.099999994E-3,2.612499986E-3,-1.346125007E-1
3.096129986E0,-1.374999993E-4,5.499999970E-4,-1.366750002E-1
3.098630526E0,-1.374999993E-4,-5.499999970E-4,-1.346125007E-1
3.101130911E0,-1.099999994E-3,-2.612499986E-3,-1.357125044E-1
3.103631448E0,-1.099999994E-3,-2.612499986E-3,-1.346125007E-1
3.106132063E0,-1.374999993E-4,-5.499999970E-4,-1.366750002E-1
3.108632450E0,-1.374999993E-4,1.649999991E-3,-1.366750002E-1
3.111132986E0,-1.099999994E-3,5.499999970E-4,-1.377750039E-1
3.113633373E0,-1.374999993E-4,-2.612499986E-3,-1.377750039E-1
3.116133976E0,-1.099999994E-3,-5.499999970E-4,-1.420374960E-1
3.118634517E0,-1.374999993E-4,5.499999970E-4,-1.431374997E-1
3.121134901E0,-1.374999993E-4,5.499999970E-4,-1.442375034E-1
3.123635515E0,-1.099999994E-3,-1.649999991E-3,-1.451999992E-1
3.126136045E0,-1.099999994E-3,-5.499999970E-4,-1.473999918E-1
3.128636430E0,-2.199999988E-3,-5.499999970E-4,-1.494625062E-1
3.131136966E0,-2.199999988E-3,1.649999991E-3,-1.494625062E-1
3.133637353E0,-1.374999993E-4,-5.499999970E-4,-1.505624950E-1
3.136137966E0,-1.099999994E-3,-3.712499980E-3,-1.505624950E-1
3.138638498E0,-1.374999993E-4,-3.712499980E-3,-1.527625024E-1
3.141138882E0,-1.374999993E-4,-1.649999991E-3,-1.484999955E-1
3.143639419E0,9.624999948E-4,-5.499999970E-4,-1.484999955E-1
3.146139805E0,-1.374999993E-4,-5.499999970E-4,-1.484999955E-1
3.148640394E0,9.624999948E-4,-1.649999991E-3,-1.473999918E-1
3.151140934E0,-1.099999994E-3,-2.612499986E-3,-1.431374997E-1
3.153641319E0,-1.099999994E-3,-1.649999991E-3,-1.442375034E-1
3.156141855E0,-1.374999993E-4,-5.499999970E-4,-1.409374923E-1
3.158642471E0,-1.374999993E-4,-5.499999970E-4,-1.399749964E-1
3.161142852E0,-1.099999994E-3,-3.712499980E-3,-1.399749964E-1
3.163643389E0,-1.099999994E-3,-2.612499986E-3,-1.399749964E-1
3.166143775E0,-1.374999993E-4,-5.499999970E-4,-1.388749927E-1
3.168644389E0,-1.374999993E-4,-5.499999970E-4,-1.399749964E-1
3.171144953E0,-1.374999993E-4,-5.499999970E-4,-1.399749964E-1
3.173645338E0,-1.099999994E-3,-3.712499980E-3,-1.388749927E-1
3.176145951E0,-1.374999993E-4,-2.612499986E-3,-1.420374960E-1
3.178646492E0,-1.374999993E-4,-5.499999970E-4,-1.431374997E-1
3.181146876E0,-2.199999988E-3,5.499999970E-4,-1.420374960E-1
3.183647413E0,-1.099999994E-3,-1.649999991E-3,-1.420374960E-1
3.186148028E0,-2.199999988E-3,-1.649999991E-3,-1.420374960E-1
3.188648415E0,-1.099999994E-3,-3.712499980E-3,-1.420374960E-1
3.191148951E0,-1.099999994E-3,-1.649999991E-3,-1.409374923E-1
3.193649357E0,-1.374999993E-4,5.499999970E-4,-1.409374923E-1
3.196149970E0,-1.099999994E-3,5.499999970E-4,-1.399749964E-1
3.198650511E0,-1.099999994E-3,-2.612499986E-3,-1.388749927E-1
3.201150895E0,-1.374999993E-4,-1.649999991E-3,-1.388749927E-1
3.203651437E0,9.624999948E-4,-5.499999970E-4,-1.377750039E-1
3.206152052E0,9.624999948E-4,1.649999991E-3,-1.366750002E-1
3.208652439E0,-2.199999988E-3,5.499999970E-4,-1.335124969E-1
3.211152975E0,-1.099999994E-3,-1.649999991E-3,-1.346125007E-1
3.213653376E0,-2.199999988E-3,-1.649999991E-3,-1.335124969E-1
3.216153912E0,-1.099999994E-3,5.499999970E-4,-1.314499974E-1
3.218654528E0,-1.374999993E-4,5.499999970E-4,-1.303499937E-1
3.221154914E0,-1.374999993E-4,-5.499999970E-4,-1.325500011E-1
3.223655437E0,-1.374999993E-4,-2.612499986E-3,-1.292500049E-1
3.226155823E0,-2.199999988E-3,-2.612499986E-3,-1.303499937E-1
3.228656437E0,-1.099999994E-3,-1.649999991E-3,-1.292500049E-1
3.231156977E0,-1.099999994E-3,5.499999970E-4,-1.282874942E-1
3.233657366E0,-3.299999982E-3,-1.649999991E-3,-1.282874942E-1
3.236157902E0,-3.299999982E-3,-2.612499986E-3,-1.271875054E-1
3.238658518E0,-1.099999994E-3,-2.612499986E-3,-1.282874942E-1
3.241158904E0,-2.199999988E-3,-2.612499986E-3,-1.249874979E-1
3.243659441E0,-2.199999988E-3,1.649999991E-3,-1.249874979E-1
3.246159828E0,-1.099999994E-3,-5.499999970E-4,-1.240250021E-1
3.248660441E0,-2.199999988E-3,-4.812499974E-3,-1.240250021E-1
3.251160981E0,-2.199999988E-3,-2.612499986E-3,-1.240250021E-1
3.253661371E0,-2.199999988E-3,5.499999970E-4,-1.240250021E-1
3.256161984E0,-3.299999982E-3,5.499999970E-4,-1.260875016E-1
3.258662525E0,-3.299999982E-3,-5.499999970E-4,-1.292500049E-1
3.261162909E0,-1.099999994E-3,-3.712499980E-3,-1.303499937E-1
3.263663446E0,-3.299999982E-3,-3.712499980E-3,-1.335124969E-1
3.266164052E0,-2.199999988E-3,-5.499999970E-4,-1.377750039E-1
3.268664439E0,-2.199999988E-3,1.649999991E-3,-1.399749964E-1
3.271164975E0,-2.199999988E-3,-5.499999970E-4,-1.431374997E-1
3.273665362E0,-2.199999988E-3,-3.712499980E-3,-1.473999918E-1
3.276165970E0,-2.199999988E-3,-3.712499980E-3,-1.516624987E-1
3.278666511E0,-4.399999976E-3,5.499999970E-4,-1.548250020E-1
3.281166896E0,-2.199999988E-3,5.499999970E-4,-1.570249945E-1
3.283667432E0,-2.199999988E-3,-1.649999991E-3,-1.579875052E-1
3.286167833E0,-2.199999988E-3,-2.612499986E-3,-1.590874940E-1
3.288668446E0,-1.099999994E-3,-2.612499986E-3,-1.601874977E-1
3.291168986E0,-2.199999988E-3,-5.499999970E-4,-1.611499935E-1
3.293669371E0,-2.199999988E-3,1.649999991E-3,-1.601874977E-1
3.296169908E0,-1.099999994E-3,5.499999970E-4,-1.601874977E-1
3.298670538E0,-1.099999994E-3,-3.712499980E-3,-1.590874940E-1
3.301170925E0,-4.399999976E-3,-1.649999991E-3,-1.579875052E-1
3.303671461E0,-2.199999988E-3,-5.499999970E-4,-1.590874940E-1
3.306171848E0,-3.299999982E-3,1.649999991E-3,-1.570249945E-1
3.308672470E0,-1.099999994E-3,-5.499999970E-4,-1.559250057E-1
3.311173011E0,-3.299999982E-3,-2.612499986E-3,-1.559250057E-1
3.313673395E0,-2.199999988E-3,-2.612499986E-3,-1.548250020E-1
3.316173932E0,-2.199999988E-3,-2.612499986E-3,-1.537249982E-1
3.318674566E0,-3.299999982E-3,1.649999991E-3,-1.516624987E-1
3.321174953E0,-2.199999988E-3,-5.499999970E-4,-1.516624987E-1
3.323675489E0,-2.199999988E-3,-1.649999991E-3,-1.494625062E-1
3.326175876E0,-2.199999988E-3,-4.812499974E-3,-1.473999918E-1
3.328676489E0,-2.199999988E-3,5.499999970E-4,-1.473999918E-1
3.331177035E0,-3.299999982E-3,5.499999970E-4,-1.473999918E-1
3.333677419E0,-2.199999988E-3,-5.499999970E-4,-1.431374997E-1
3.336178033E0,-2.199999988E-3,-2.612499986E-3,-1.420374960E-1
3.338678573E0,-1.099999994E-3,-2.612499986E-3,-1.420374960E-1
3.341178939E0,-2.199999988E-3,-1.649999991E-3,-1.409374923E-1
3.343679475E0,-2.199999988E-3,1.649999991E-3,-1.409374923E-1
3.346180091E0,-1.099999994E-3,5.499999970E-4,-1.399749964E-1
3.348680477E0,-2.199999988E-3,-2.612499986E-3,-1.388749927E-1
3.351181014E0,-2.199999988E-3,-5.499999970E-4,-1.366750002E-1
3.353681400E0,-3.299999982E-3,-1.649999991E-3,-1.366750002E-1
3.356182014E0,-1.374999993E-4,-5.499999970E-4,-1.377750039E-1
3.358682554E0,-1.099999994E-3,5.499999970E-4,-1.346125007E-1
3.361182939E0,-1.099999994E-3,-2.612499986E-3,-1.366750002E-1
3.363683470E0,-2.199999988E-3,-2.612499986E-3,-1.346125007E-1
3.366184086E0,-2.199999988E-3,-1.649999991E-3,-1.346125007E-1
3.368684395E0,-2.199999988E-3,-5.499999970E-4,-1.346125007E-1
3.371185009E0,-2.199999988E-3,-1.649999991E-3,-1.335124969E-1
3.373685395E0,-1.374999993E-4,-1.649999991E-3,-1.325500011E-1
3.376186009E0,-2.199999988E-3,-3.712499980E-3,-1.303499937E-1
3.378686318E0,-1.099999994E-3,-1.649999991E-3,-1.282874942E-1
3.381186932E0,-1.099999994E-3,5.499999970E-4,-1.260875016E-1
3.383687470E0,-1.374999993E-4,1.649999991E-3,-1.207249984E-1
3.386187848E0,-1.099999994E-3,-2.612499986E-3,-1.175625026E-1
3.388688461E0,-1.099999994E-3,-2.612499986E-3,-1.132999957E-1
3.391189002E0,-2.199999988E-3,-2.612499986E-3,-1.090374961E-1
3.393689386E0,-1.374999993E-4,5.499999970E-4,-1.090374961E-1
3.396189923E0,-1.099999994E-3,5.499999970E-4,-1.080750003E-1
3.398690538E0,-1.099999994E-3,-1.649999991E-3,-1.038125008E-1
3.401190925E0,-2.199999988E-3,-5.499999970E-4,-1.027124971E-1
3.403691461E0,-1.374999993E-4,5.499999970E-4,-1.005124971E-1
3.406191862E0,-2.199999988E-3,5.499999970E-4,-1.005124971E-1
3.408692475E0,-2.199999988E-3,5.499999970E-4,-9.844999760E-2
3.411193016E0,-1.099999994E-3,-5.499999970E-4,-1.005124971E-1
3.413693400E0,-1.099999994E-3,-5.499999970E-4,-9.844999760E-2
3.416193941E0,-2.199999988E-3,5.499999970E-4,-9.844999760E-2
3.418694556E0,-1.099999994E-3,-5.499999970E-4,-9.735000134E-2
3.421194943E0,-2.199999988E-3,2.612499986E-3,-9.528750181E-2
3.423695479E0,-2.199999988E-3,-5.499999970E-4,-9.308750182E-2
3.426196095E0,-2.199999988E-3,-1.649999991E-3,-9.102500230E-2
3.428696477E0,-1.099999994E-3,5.499999970E-4,-8.772499859E-2
3.431197014E0,-1.099999994E-3,5.499999970E-4,-8.566249907E-2
3.433697400E0,-1.099999994E-3,1.649999991E-3,-8.346249908E-2
3.436198014E0,-1.374999993E-4,1.649999991E-3,-7.933750004E-2
3.438698558E0,-2.199999988E-3,-5.499999970E-4,-7.603749633E-2
3.441198943E0,-2.199999988E-3,-5.499999970E-4,-7.287500054E-2
3.443699479E0,-1.099999994E-3,1.649999991E-3,-6.971249729E-2
3.446199866E0,-1.099999994E-3,1.649999991E-3,-6.544999778E-2
3.448700402E0,-2.199999988E-3,5.499999970E-4,-6.324999779E-2
3.451201018E0,-1.374999993E-4,5.499999970E-4,-5.802499875E-2
3.453701404E0,-1.374999993E-4,1.649999991E-3,-5.582499877E-2
3.456201941E0,-2.199999988E-3,1.649999991E-3,-5.486249924E-2
3.458702324E0,-1.099999994E-3,5.499999970E-4,-5.059999973E-2
3.461202937E0,-1.099999994E-3,5.499999970E-4,-4.839999974E-2
3.463703477E0,-1.099999994E-3,-5.499999970E-4,-4.523750022E-2
3.466203862E0,-2.199999988E-3,-5.499999970E-4,-4.413750023E-2
3.468704394E0,-1.374999993E-4,5.499999970E-4,-4.097500071E-2
3.471205009E0,-1.374999993E-4,5.499999970E-4,-3.877500072E-2
3.473705396E0,-1.374999993E-4,5.499999970E-4,-3.877500072E-2
3.476205932E0,-1.374999993E-4,-1.649999991E-3,-3.781250119E-2
3.478706547E0,-1.099999994E-3,5.499999970E-4,-3.781250119E-2
3.481206920E0,-2.199999988E-3,1.649999991E-3,-3.781250119E-2
3.483707456E0,-1.099999994E-3,5.499999970E-4,-3.877500072E-2
3.486207843E0,-2.199999988E-3,1.649999991E-3,-4.097500071E-2
3.488708456E0,-1.099999994E-3,5.499999970E-4,-4.097500071E-2
3.491208987E0,-1.374999993E-4,-1.649999991E-3,-4.413750023E-2
3.493709372E0,-1.374999993E-4,1.649999991E-3,-4.729999974E-2
3.496209908E0,-1.099999994E-3,5.499999970E-4,-5.266249925E-2
3.498710523E0,-1.099999994E-3,-1.649999991E-3,-5.486249924E-2
3.501210924E0,-1.099999994E-3,-5.499999970E-4,-5.692499876E-2
3.503711461E0,-1.374999993E-4,-5.499999970E-4,-6.008749828E-2
3.506211847E0,-2.199999988E-3,3.712499980E-3,-6.324999779E-2
3.508712461E0,-1.099999994E-3,5.499999970E-4,-6.861250103E-2
3.511213011E0,-1.099999994E-3,5.499999970E-4,-6.971249729E-2
3.513713396E0,-1.374999993E-4,-1.649999991E-3,-6.971249729E-2
3.516214009E0,-2.199999988E-3,-1.649999991E-3,-7.177499682E-2
3.518714319E0,-2.199999988E-3,-5.499999970E-4,-7.177499682E-2
3.521214917E0,-1.099999994E-3,-5.499999970E-4,-7.397499681E-2
3.523715456E0,-1.099999994E-3,-5.499999970E-4,-7.177499682E-2
3.526215842E0,-1.099999994E-3,5.499999970E-4,-7.397499681E-2
3.528716379E0,-2.199999988E-3,-1.649999991E-3,-7.397499681E-2
3.531216985E0,-2.199999988E-3,-5.499999970E-4,-7.287500054E-2
3.533717372E0,-2.199999988E-3,-5.499999970E-4,-7.507500052E-2
3.536217908E0,-1.099999994E-3,5.499999970E-4,-7.507500052E-2
3.538718295E0,-2.199999988E-3,-1.649999991E-3,-7.397499681E-2
3.541218879E0,-2.199999988E-3,-5.499999970E-4,-7.507500052E-2
3.543719420E0,-3.299999982E-3,-5.499999970E-4,-7.507500052E-2
3.546219804E0,-1.099999994E-3,-1.649999991E-3,-7.507500052E-2
3.548720341E0,-2.199999988E-3,-1.649999991E-3,-7.507500052E-2
3.551220956E0,-1.099999994E-3,-1.649999991E-3,-7.603749633E-2
3.553721357E0,-2.199999988E-3,-2.612499986E-3,-7.713750005E-2
3.556221893E0,-2.199999988E-3,-5.499999970E-4,-7.823749632E-2
3.558722509E0,-2.199999988E-3,-5.499999970E-4,-8.030000329E-2
3.561222895E0,-2.199999988E-3,-3.712499980E-3,-7.823749632E-2
3.563723442E0,-1.099999994E-3,-2.612499986E-3,-7.933750004E-2
3.566223828E0,-1.099999994E-3,-1.649999991E-3,-7.933750004E-2
3.568724442E0,-3.299999982E-3,-1.649999991E-3,-8.139999956E-2
3.571224982E0,-2.199999988E-3,-1.649999991E-3,-8.030000329E-2
3.573725357E0,-1.099999994E-3,-1.649999991E-3,-8.249999583E-2
3.576225893E0,-2.199999988E-3,-2.612499986E-3,-8.030000329E-2
3.578726509E0,-1.374999993E-4,-2.612499986E-3,-8.346249908E-2
3.581226895E0,-1.374999993E-4,-5.499999970E-4,-8.346249908E-2
3.583727447E0,-2.199999988E-3,-1.649999991E-3,-8.346249908E-2
3.586227833E0,-2.199999988E-3,-1.649999991E-3,-8.346249908E-2
3.588728447E0,-1.099999994E-3,-2.612499986E-3,-8.456250280E-2
3.591228987E0,-1.099999994E-3,-2.612499986E-3,-8.566249907E-2
3.593729372E0,-1.099999994E-3,-1.649999991E-3,-8.456250280E-2
3.596229989E0,-3.299999982E-3,-1.649999991E-3,-8.676250279E-2
3.598730299E0,-2.199999988E-3,-1.649999991E-3,-8.882500231E-2
3.601230912E0,-1.099999994E-3,-2.612499986E-3,-9.102500230E-2
3.603731451E0,-1.374999993E-4,-5.499999970E-4,-8.992499858E-2
3.606231842E0,-2.199999988E-3,5.499999970E-4,-8.992499858E-2
3.608732379E0,-1.099999994E-3,-5.499999970E-4,-9.102500230E-2
3.611232994E0,-1.099999994E-3,-1.649999991E-3,-9.102500230E-2
3.613733381E0,-2.199999988E-3,-1.649999991E-3,-9.198749810E-2
3.616233898E0,-3.299999982E-3,-1.649999991E-3,-9.198749810E-2
3.618734285E0,-2.199999988E-3,-1.649999991E-3,-9.198749810E-2
3.621234898E0,-2.199999988E-3,-5.499999970E-4,-9.198749810E-2
3.623735439E0,-1.099999994E-3,-1.649999991E-3,-9.308750182E-2
3.626235808E0,-1.099999994E-3,-5.499999970E-4,-9.198749810E-2
3.628736345E0,-2.199999988E-3,-1.649999991E-3,-9.198749810E-2
3.631236960E0,-2.199999988E-3,5.499999970E-4,-9.198749810E-2
3.633737347E0,-2.199999988E-3,-5.499999970E-4,-9.102500230E-2
3.636237883E0,-2.199999988E-3,-5.499999970E-4,-9.102500230E-2
3.638738270E0,-2.199999988E-3,-1.649999991E-3,-9.102500230E-2
3.641238883E0,-2.199999988E-3,-5.499999970E-4,-8.676250279E-2
3.643739424E0,-1.099999994E-3,-1.649999991E-3,-8.456250280E-2
3.646239808E0,-2.199999988E-3,-5.499999970E-4,-8.139999956E-2
3.648740422E0,-1.099999994E-3,-5.499999970E-4,-8.030000329E-2
3.651240962E0,-1.374999993E-4,-5.499999970E-4,-7.603749633E-2
3.653741347E0,-3.299999982E-3,-1.649999991E-3,-7.287500054E-2
3.656241883E0,-1.374999993E-4,-5.499999970E-4,-6.861250103E-2
3.658742499E0,-2.199999988E-3,-1.649999991E-3,-6.751249731E-2
3.661242885E0,-1.099999994E-3,-5.499999970E-4,-6.228749827E-2
3.663743422E0,-1.374999993E-4,-5.499999970E-4,-5.898749828E-2
3.666243809E0,-2.199999988E-3,-5.499999970E-4,-5.376249924E-2
3.668744403E0,-1.099999994E-3,-1.649999991E-3,-4.949999973E-2
3.671244943E0,-1.374999993E-4,1.649999991E-3,-4.729999974E-2
3.673745328E0,9.624999948E-4,-1.649999991E-3,-4.413750023E-2
3.676245864E0,-1.099999994E-3,-5.499999970E-4,-4.207500070E-2
3.678746466E0,-1.099999994E-3,-5.499999970E-4,-3.877500072E-2
3.681246852E0,-1.099999994E-3,5.499999970E-4,-3.671250120E-2
3.683747389E0,-1.099999994E-3,-5.499999970E-4,-3.355000168E-2
3.686247776E0,-1.374999993E-4,-1.649999991E-3,-3.135000169E-2
3.688748312E0,-2.199999988E-3,5.499999970E-4,-3.038750030E-2
3.691248951E0,-3.299999982E-3,-5.499999970E-4,-2.818750031E-2
3.693749338E0,-1.099999994E-3,1.649999991E-3,-2.612499893E-2
3.696249875E0,-1.374999993E-4,1.649999991E-3,-2.708750032E-2
3.698750261E0,-1.099999994E-3,-5.499999970E-4,-2.502499893E-2
3.701250889E0,-1.099999994E-3,-5.499999970E-4,-2.612499893E-2
3.703751429E0,-1.099999994E-3,-5.499999970E-4,-2.502499893E-2
3.706251814E0,-1.099999994E-3,-5.499999970E-4,-2.282499894E-2
3.708752350E0,-2.199999988E-3,-1.649999991E-3,-2.502499893E-2
3.711252984E0,9.624999948E-4,5.499999970E-4,-2.502499893E-2
3.713753371E0,-1.099999994E-3,-5.499999970E-4,-2.818750031E-2
3.716253908E0,-1.099999994E-3,-5.499999970E-4,-2.818750031E-2
3.718754294E0,-1.099999994E-3,5.499999970E-4,-2.708750032E-2
3.721254898E0,9.624999948E-4,5.499999970E-4,-2.818750031E-2
3.723755438E0,-1.374999993E-4,-5.499999970E-4,-2.818750031E-2
3.726255823E0,-1.099999994E-3,-2.612499986E-3,-2.928750031E-2
3.728756436E0,-1.099999994E-3,5.499999970E-4,-3.135000169E-2
3.731256963E0,-1.374999993E-4,1.649999991E-3,-3.135000169E-2
3.733757347E0,2.062499989E-3,-5.499999970E-4,-3.135000169E-2
3.736257884E0,-1.099999994E-3,1.649999991E-3,-3.355000168E-2
3.738758499E0,-1.099999994E-3,-1.649999991E-3,-3.451250121E-2
3.741258891E0,-1.374999993E-4,-1.649999991E-3,-3.671250120E-2
3.743759427E0,-1.099999994E-3,-5.499999970E-4,-3.561250120E-2
3.746259814E0,-1.099999994E-3,-5.499999970E-4,-3.877500072E-2
3.748760427E0,-1.374999993E-4,5.499999970E-4,-3.987500072E-2
3.751260737E0,-1.099999994E-3,-1.649999991E-3,-4.303750023E-2
3.753761345E0,-1.374999993E-4,5.499999970E-4,-4.523750022E-2
3.756261884E0,-1.374999993E-4,-5.499999970E-4,-4.949999973E-2
3.758762270E0,-1.099999994E-3,1.649999991E-3,-5.156249925E-2
3.761262807E0,-1.099999994E-3,-1.649999991E-3,-5.266249925E-2
3.763763432E0,-1.099999994E-3,5.499999970E-4,-5.582499877E-2
3.766263819E0,-1.374999993E-4,-1.649999991E-3,-5.898749828E-2
3.768764355E0,-1.099999994E-3,-2.612499986E-3,-6.008749828E-2
3.771264971E0,9.624999948E-4,5.499999970E-4,-6.008749828E-2
3.773765342E0,-1.099999994E-3,-5.499999970E-4,-6.008749828E-2
3.776265879E0,-1.374999993E-4,5.499999970E-4,-6.228749827E-2
3.778766265E0,2.062499989E-3,-1.649999991E-3,-6.228749827E-2
3.781266879E0,-1.099999994E-3,5.499999970E-4,-6.228749827E-2
3.783767419E0,-1.374999993E-4,5.499999970E-4,-6.118749827E-2
3.786267818E0,-1.099999994E-3,5.499999970E-4,-5.898749828E-2
3.788768354E0,-1.099999994E-3,-5.499999970E-4,-6.118749827E-2
3.791268970E0,-2.199999988E-3,-1.649999991E-3,-5.802499875E-2
3.793769356E0,-2.199999988E-3,5.499999970E-4,-5.582499877E-2
3.796269927E0,-2.199999988E-3,1.649999991E-3,-5.582499877E-2
3.798770542E0,-1.374999993E-4,-5.499999970E-4,-5.266249925E-2
3.801270929E0,-1.374999993E-4,-5.499999970E-4,-5.059999973E-2
3.803771465E0,-2.199999988E-3,-1.649999991E-3,-4.949999973E-2
3.806271866E0,-2.199999988E-3,5.499999970E-4,-4.839999974E-2
3.808772479E0,-1.099999994E-3,5.499999970E-4,-4.413750023E-2
3.811273020E0,-1.374999993E-4,-5.499999970E-4,-4.207500070E-2
3.813773404E0,-2.199999988E-3,-1.649999991E-3,-4.207500070E-2
3.816273936E0,-1.374999993E-4,-5.499999970E-4,-3.987500072E-2
3.818774551E0,-1.374999993E-4,5.499999970E-4,-3.877500072E-2
3.821274938E0,-1.374999993E-4,-5.499999970E-4,-3.561250120E-2
3.823775474E0,9.624999948E-4,5.499999970E-4,-3.781250119E-2
3.826275866E0,-2.199999988E-3,-1.649999991E-3,-3.671250120E-2
3.828776479E0,-1.099999994E-3,-5.499999970E-4,-3.671250120E-2
3.831277020E0,-1.099999994E-3,2.612499986E-3,-3.671250120E-2
3.833777404E0,-1.374999993E-4,5.499999970E-4,-3.561250120E-2
3.836277970E0,-1.374999993E-4,5.499999970E-4,-3.561250120E-2
3.838778356E0,-1.374999993E-4,-5.499999970E-4,-3.671250120E-2
3.841278970E0,-1.374999993E-4,-5.499999970E-4,-3.877500072E-2
3.843779510E0,9.624999948E-4,1.649999991E-3,-4.097500071E-2
3.846279881E0,9.624999948E-4,1.649999991E-3,-4.207500070E-2
3.848780417E0,-1.374999993E-4,5.499999970E-4,-4.413750023E-2
3.851281033E0,-1.099999994E-3,-1.649999991E-3,-4.633750021E-2
3.853781419E0,-1.374999993E-4,-5.499999970E-4,-4.949999973E-2
3.856281932E0,-2.199999988E-3,5.499999970E-4,-5.156249925E-2
3.858782319E0,-1.099999994E-3,5.499999970E-4,-5.486249924E-2
3.861282932E0,-1.374999993E-4,-5.499999970E-4,-5.692499876E-2
3.863783472E0,-1.099999994E-3,-2.612499986E-3,-5.802499875E-2
3.866283842E0,-1.099999994E-3,-5.499999970E-4,-5.802499875E-2
3.868784378E0,-1.374999993E-4,-5.499999970E-4,-5.898749828E-2
3.871284994E0,-1.099999994E-3,5.499999970E-4,-6.118749827E-2
3.873785380E0,-1.099999994E-3,-1.649999991E-3,-5.898749828E-2
3.876285917E0,9.624999948E-4,-5.499999970E-4,-5.898749828E-2
3.878786532E0,-1.374999993E-4,-5.499999970E-4,-5.692499876E-2
3.881286919E0,-1.099999994E-3,-5.499999970E-4,-5.582499877E-2
3.883787455E0,9.624999948E-4,-5.499999970E-4,-5.692499876E-2
3.886287842E0,-1.099999994E-3,-2.612499986E-3,-5.692499876E-2
3.888788460E0,-1.099999994E-3,-5.499999970E-4,-5.376249924E-2
3.891289001E0,-2.199999988E-3,-1.649999991E-3,-5.376249924E-2
3.893789386E0,-1.099999994E-3,5.499999970E-4,-5.376249924E-2
3.896289922E0,-1.099999994E-3,5.499999970E-4,-5.266249925E-2
3.898790547E0,-1.099999994E-3,-5.499999970E-4,-5.156249925E-2
3.901290934E0,-1.099999994E-3,-5.499999970E-4,-5.156249925E-2
3.903791470E0,-1.374999993E-4,-1.649999991E-3,-5.376249924E-2
3.906291857E0,-1.374999993E-4,-5.499999970E-4,-4.949999973E-2
3.908792474E0,-1.374999993E-4,-1.649999991E-3,-4.839999974E-2
3.911293015E0,-1.374999993E-4,-5.499999970E-4,-4.633750021E-2
3.913793400E0,-1.374999993E-4,-5.499999970E-4,-4.303750023E-2
3.916293936E0,-1.374999993E-4,-1.649999991E-3,-4.303750023E-2
3.918794542E0,-1.374999993E-4,5.499999970E-4,-4.097500071E-2
3.921294929E0,9.624999948E-4,-1.649999991E-3,-3.877500072E-2
3.923795466E0,-1.099999994E-3,-5.499999970E-4,-3.561250120E-2
3.926295852E0,9.624999948E-4,-2.612499986E-3,-3.451250121E-2
3.928796389E0,-1.374999993E-4,5.499999970E-4,-3.038750030E-2
3.931296989E0,-1.099999994E-3,5.499999970E-4,-3.038750030E-2
3.933797376E0,9.624999948E-4,-5.499999970E-4,-2.928750031E-2
3.936297912E0,-1.099999994E-3,-5.499999970E-4,-2.818750031E-2
3.938798299E0,-1.374999993E-4,-1.649999991E-3,-2.612499893E-2
3.941298917E0,9.624999948E-4,1.649999991E-3,-2.708750032E-2
3.943799458E0,-1.374999993E-4,5.499999970E-4,-2.612499893E-2
3.946299842E0,-1.374999993E-4,2.612499986E-3,-2.502499893E-2
3.948800456E0,-2.199999988E-3,5.499999970E-4,-2.282499894E-2
3.951300996E0,9.624999948E-4,-2.612499986E-3,-2.392499894E-2
3.953801381E0,-1.099999994E-3,-5.499999970E-4,-2.186249942E-2
3.956301917E0,-1.374999993E-4,5.499999970E-4,-1.856249943E-2
3.958802533E0,-1.099999994E-3,1.649999991E-3,-1.856249943E-2
3.961302919E0,-1.374999993E-4,5.499999970E-4,-1.759999990E-2
3.963803422E0,9.624999948E-4,-1.649999991E-3,-1.539999992E-2
3.966303808E0,-1.374999993E-4,5.499999970E-4,-1.429999992E-2
3.968804422E0,9.624999948E-4,-5.499999970E-4,-1.333750039E-2
3.971304962E0,-1.374999993E-4,5.499999970E-4,-1.003750041E-2
3.973805338E0,9.624999948E-4,-5.499999970E-4,-1.223750040E-2
3.976305874E0,-1.374999993E-4,-5.499999970E-4,-1.003750041E-2
3.978806490E0,2.062499989E-3,5.499999970E-4,-1.223750040E-2
3.981306799E0,9.624999948E-4,5.499999970E-4,-1.113750041E-2
3.983807413E0,9.624999948E-4,-5.499999970E-4,-1.113750041E-2
3.986307799E0,-1.374999993E-4,-2.612499986E-3,-1.429999992E-2
3.988808413E0,9.624999948E-4,-1.649999991E-3,-1.539999992E-2
3.991308953E0,9.624999948E-4,-5.499999970E-4,-1.759999990E-2
3.993809353E0,9.624999948E-4,-5.499999970E-4,-1.856249943E-2
3.996309889E0,-1.374999993E-4,-5.499999970E-4,-2.076249942E-2
3.998810276E0,-1.099999994E-3,-5.499999970E-4,-2.282499894E-2
4.001310889E0,9.624999948E-4,-2.612499986E-3,-2.392499894E-2
4.003811416E0,-1.374999993E-4,-5.499999970E-4,-2.502499893E-2
4.006311800E0,-1.374999993E-4,1.649999991E-3,-2.818750031E-2
4.008812337E0,2.062499989E-3,-5.499999970E-4,-2.708750032E-2
4.011312952E0,-1.374999993E-4,-2.612499986E-3,-2.818750031E-2
4.013813339E0,-1.374999993E-4,-5.499999970E-4,-2.928750031E-2
4.016313894E0,9.624999948E-4,5.499999970E-4,-2.928750031E-2
4.018814281E0,-1.099999994E-3,-5.499999970E-4,-2.928750031E-2
4.021314894E0,-1.374999993E-4,5.499999970E-4,-2.818750031E-2
4.023815435E0,9.624999948E-4,-5.499999970E-4,-2.818750031E-2
4.026315853E0,9.624999948E-4,-3.712499980E-3,-2.928750031E-2
4.028816467E0,9.624999948E-4,-1.649999991E-3,-2.612499893E-2
4.031317007E0,9.624999948E-4,-5.499999970E-4,-2.928750031E-2
4.033817392E0,-1.374999993E-4,-5.499999970E-4,-2.928750031E-2
4.036317942E0,-2.199999988E-3,-3.712499980E-3,-2.708750032E-2
4.038818558E0,9.624999948E-4,-1.649999991E-3,-2.818750031E-2
4.041318944E0,-1.099999994E-3,-2.612499986E-3,-2.708750032E-2
4.043819481E0,9.624999948E-4,-5.499999970E-4,-2.708750032E-2
4.046319867E0,9.624999948E-4,-5.499999970E-4,-2.818750031E-2
4.048820476E0,-1.099999994E-3,-5.499999970E-4,-2.612499893E-2
4.051321016E0,-1.099999994E-3,-2.612499986E-3,-2.708750032E-2
4.053821401E0,-1.374999993E-4,5.499999970E-4,-2.502499893E-2
4.056321937E0,-1.099999994E-3,-5.499999970E-4,-2.612499893E-2
4.058822324E0,9.624999948E-4,-1.649999991E-3,-2.612499893E-2
4.061322937E0,-1.099999994E-3,-1.649999991E-3,-2.282499894E-2
4.063823478E0,-1.374999993E-4,-3.712499980E-3,-2.392499894E-2
4.066323862E0,-1.374999993E-4,-1.649999991E-3,-2.186249942E-2
4.068824404E0,-1.099999994E-3,1.649999991E-3,-2.186249942E-2
4.071325019E0,-1.374999993E-4,-5.499999970E-4,-2.076249942E-2
4.073825406E0,-1.374999993E-4,-2.612499986E-3,-1.966249943E-2
4.076325942E0,9.624999948E-4,-2.612499986E-3,-1.966249943E-2
4.078826329E0,-1.099999994E-3,-5.499999970E-4,-1.966249943E-2
4.081326942E0,-1.374999993E-4,-5.499999970E-4,-2.282499894E-2
4.083827483E0,-1.374999993E-4,5.499999970E-4,-2.282499894E-2
4.086327868E0,-1.374999993E-4,-2.612499986E-3,-2.076249942E-2
4.088828404E0,-1.374999993E-4,-1.649999991E-3,-2.282499894E-2
4.091329034E0,-1.099999994E-3,-5.499999970E-4,-2.282499894E-2
4.093829421E0,-1.374999993E-4,-5.499999970E-4,-2.612499893E-2
4.096329957E0,-1.374999993E-4,-5.499999970E-4,-2.502499893E-2
4.098830344E0,-1.099999994E-3,-1.649999991E-3,-2.612499893E-2
4.101330976E0,-1.374999993E-4,-2.612499986E-3,-2.612499893E-2
4.103831517E0,-2.199999988E-3,-1.649999991E-3,-2.502499893E-2
4.106331902E0,-1.374999993E-4,-1.649999991E-3,-2.612499893E-2
4.108832515E0,-1.374999993E-4,-5.499999970E-4,-2.612499893E-2
4.111333050E0,-1.099999994E-3,-5.499999970E-4,-2.612499893E-2
4.113833435E0,-1.099999994E-3,-1.649999991E-3,-2.612499893E-2
4.116333972E0,-1.374999993E-4,-5.499999970E-4,-2.502499893E-2
4.118834587E0,-1.374999993E-4,-5.499999970E-4,-2.502499893E-2
4.121334988E0,-1.099999994E-3,5.499999970E-4,-2.612499893E-2
4.123835524E0,-1.099999994E-3,-5.499999970E-4,-2.612499893E-2
4.126335911E0,-1.099999994E-3,-1.649999991E-3,-2.612499893E-2
4.128836524E0,-1.099999994E-3,-2.612499986E-3,-2.502499893E-2
4.131337083E0,-1.374999993E-4,5.499999970E-4,-2.708750032E-2
4.133837468E0,-1.374999993E-4,5.499999970E-4,-3.038750030E-2
4.136338005E0,-1.099999994E-3,-1.649999991E-3,-3.038750030E-2
4.138838620E0,-1.374999993E-4,-5.499999970E-4,-2.928750031E-2
4.141339007E0,-1.374999993E-4,-5.499999970E-4,-3.038750030E-2
4.143839563E0,-1.374999993E-4,5.499999970E-4,-3.038750030E-2
4.146340178E0,-1.374999993E-4,-5.499999970E-4,-3.355000168E-2
4.148840488E0,-1.099999994E-3,-2.612499986E-3,-3.135000169E-2
4.151340873E0,-1.374999993E-4,-3.712499980E-3,-3.244999796E-2
4.153841500E0,-1.374999993E-4,-5.499999970E-4,-3.355000168E-2
4.156342039E0,-1.374999993E-4,-5.499999970E-4,-3.135000169E-2
4.158842425E0,-1.099999994E-3,5.499999970E-4,-3.244999796E-2
4.161343039E0,-1.374999993E-4,-5.499999970E-4,-3.135000169E-2
4.163843564E0,-1.099999994E-3,-3.712499980E-3,-3.038750030E-2
4.166343949E0,-1.374999993E-4,-1.649999991E-3,-2.818750031E-2
4.168844485E0,-1.374999993E-4,-5.499999970E-4,-2.708750032E-2
4.171345101E0,-1.374999993E-4,5.499999970E-4,-2.708750032E-2
4.173845491E0,-1.374999993E-4,-1.649999991E-3,-2.502499893E-2
4.176346028E0,-1.374999993E-4,-5.499999970E-4,-2.186249942E-2
4.178846414E0,-1.374999993E-4,-1.649999991E-3,-1.966249943E-2
4.181347028E0,9.624999948E-4,-5.499999970E-4,-1.856249943E-2
4.183847573E0,-1.374999993E-4,-1.649999991E-3,-1.856249943E-2
4.186347958E0,9.624999948E-4,-1.649999991E-3,-1.856249943E-2
4.188848571E0,9.624999948E-4,-5.499999970E-4,-1.429999992E-2
4.191349112E0,9.624999948E-4,-2.612499986E-3,-1.759999990E-2
4.193849482E0,-1.374999993E-4,5.499999970E-4,-1.429999992E-2
4.196350019E0,-1.374999993E-4,-2.612499986E-3,-1.113750041E-2
4.198850634E0,-1.099999994E-3,-5.499999970E-4,-1.333750039E-2
4.201351021E0,-1.374999993E-4,-4.812499974E-3,-1.223750040E-2
4.203851557E0,-1.099999994E-3,-1.649999991E-3,-1.223750040E-2
4.206351944E0,-1.099999994E-3,-1.649999991E-3,-1.113750041E-2
4.208852557E0,-1.374999993E-4,-5.499999970E-4,-1.003750041E-2
4.211353098E0,-1.374999993E-4,-2.612499986E-3,-1.003750041E-2
4.213853482E0,-1.374999993E-4,-5.499999970E-4,-1.003750041E-2
4.216354028E0,-1.374999993E-4,-5.499999970E-4,-9.074999951E-3
4.218854643E0,-1.374999993E-4,-1.649999991E-3,-1.113750041E-2
4.221355030E0,-1.099999994E-3,-5.499999970E-4,-1.429999992E-2
4.223855566E0,-1.374999993E-4,-1.649999991E-3,-1.223750040E-2
4.226356187E0,9.624999948E-4,-1.649999991E-3,-1.333750039E-2
4.228856496E0,-1.099999994E-3,-5.499999970E-4,-1.333750039E-2
4.231357110E0,-1.099999994E-3,-5.499999970E-4,-1.539999992E-2
4.233857496E0,-1.374999993E-4,-5.499999970E-4,-1.649999991E-2
4.236358033E0,-1.374999993E-4,5.499999970E-4,-1.856249943E-2
4.238858424E0,-1.099999994E-3,-1.649999991E-3,-1.856249943E-2
4.241359038E0,-1.374999993E-4,-5.499999970E-4,-1.856249943E-2
4.243859578E0,-1.099999994E-3,-1.649999991E-3,-1.966249943E-2
4.246359963E0,-1.099999994E-3,5.499999970E-4,-1.966249943E-2
4.248860494E0,-1.099999994E-3,-5.499999970E-4,-1.966249943E-2
4.251361110E0,-2.199999988E-3,-5.499999970E-4,-1.759999990E-2
4.253861496E0,-1.099999994E-3,5.499999970E-4,-2.076249942E-2
4.256362033E0,-2.199999988E-3,-5.499999970E-4,-1.966249943E-2
4.258862419E0,-1.099999994E-3,-5.499999970E-4,-1.856249943E-2
4.261363033E0,-1.099999994E-3,-1.649999991E-3,-1.966249943E-2
4.263863573E0,-1.099999994E-3,5.499999970E-4,-2.076249942E-2
4.266363958E0,-1.374999993E-4,5.499999970E-4,-2.076249942E-2
4.268864571E0,-1.099999994E-3,-5.499999970E-4,-1.966249943E-2
4.271365098E0,-1.374999993E-4,1.649999991E-3,-2.076249942E-2
4.273865482E0,-1.374999993E-4,-1.649999991E-3,-2.076249942E-2
4.276366019E0,-1.099999994E-3,-5.499999970E-4,-2.282499894E-2
4.278866634E0,2.062499989E-3,1.649999991E-3,-2.076249942E-2
4.281367021E0,-1.374999993E-4,-5.499999970E-4,-2.282499894E-2
4.283867571E0,-1.099999994E-3,5.499999970E-4,-2.076249942E-2
4.286367958E0,-1.099999994E-3,-5.499999970E-4,-2.282499894E-2
4.288868571E0,9.624999948E-4,5.499999970E-4,-2.282499894E-2
4.291369112E0,-1.374999993E-4,5.499999970E-4,-2.282499894E-2
4.293869496E0,-1.099999994E-3,5.499999970E-4,-2.282499894E-2
4.296370033E0,-1.374999993E-4,-5.499999970E-4,-2.282499894E-2
4.298870420E0,-1.374999993E-4,-5.499999970E-4,-2.186249942E-2
4.301371033E0,-1.374999993E-4,5.499999970E-4,-2.076249942E-2
4.303871573E0,9.624999948E-4,-5.499999970E-4,-2.186249942E-2
4.306371958E0,-1.374999993E-4,-5.499999970E-4,-2.076249942E-2
4.308872495E0,-1.374999993E-4,5.499999970E-4,-2.076249942E-2
4.311373110E0,9.624999948E-4,-5.499999970E-4,-2.076249942E-2
4.313873492E0,-1.099999994E-3,-5.499999970E-4,-2.076249942E-2
4.316374028E0,-1.374999993E-4,-1.649999991E-3,-2.076249942E-2
4.318874415E0,9.624999948E-4,1.649999991E-3,-1.856249943E-2
4.321375028E0,9.624999948E-4,5.499999970E-4,-1.856249943E-2
4.323875573E0,-1.374999993E-4,-1.649999991E-3,-1.759999990E-2
4.326375958E0,2.062499989E-3,-5.499999970E-4,-1.856249943E-2
4.328876495E0,2.062499989E-3,5.499999970E-4,-1.649999991E-2
4.331377110E0,-1.099999994E-3,2.612499986E-3,-1.649999991E-2
4.333877497E0,9.624999948E-4,-5.499999970E-4,-1.966249943E-2
4.336378033E0,-1.374999993E-4,-2.612499986E-3,-1.966249943E-2
4.338878420E0,-1.374999993E-4,-1.649999991E-3,-1.856249943E-2
4.341379033E0,-1.374999993E-4,-1.649999991E-3,-2.076249942E-2
4.343879574E0,9.624999948E-4,-1.649999991E-3,-2.076249942E-2
4.346379943E0,9.624999948E-4,-5.499999970E-4,-2.186249942E-2
4.348880557E0,9.624999948E-4,5.499999970E-4,-2.282499894E-2
4.351381097E0,9.624999948E-4,-1.649999991E-3,-2.612499893E-2
4.353881482E0,-1.374999993E-4,1.649999991E-3,-2.502499893E-2
4.356382023E0,-1.374999993E-4,1.649999991E-3,-2.612499893E-2
4.358882638E0,-1.374999993E-4,-5.499999970E-4,-2.502499893E-2
4.361383025E0,-1.374999993E-4,-5.499999970E-4,-2.502499893E-2
4.363883562E0,9.624999948E-4,-5.499999970E-4,-2.612499893E-2
4.366383919E0,2.062499989E-3,-5.499999970E-4,-2.708750032E-2
4.368884533E0,-1.374999993E-4,5.499999970E-4,-2.392499894E-2
4.371385073E0,-1.099999994E-3,-1.649999991E-3,-2.502499893E-2
4.373885458E0,-1.099999994E-3,5.499999970E-4,-2.612499893E-2
4.376385994E0,9.624999948E-4,-1.649999991E-3,-2.612499893E-2
4.378886610E0,2.062499989E-3,-5.499999970E-4,-2.818750031E-2
4.381386996E0,9.624999948E-4,5.499999970E-4,-2.928750031E-2
4.383887533E0,9.624999948E-4,-5.499999970E-4,-2.818750031E-2
4.386387924E0,9.624999948E-4,-5.499999970E-4,-2.818750031E-2
4.388888461E0,2.062499989E-3,-1.649999991E-3,-2.928750031E-2
4.391389076E0,-1.374999993E-4,5.499999970E-4,-3.038750030E-2
4.393889463E0,-1.374999993E-4,-1.649999991E-3,-3.038750030E-2
4.396389994E0,2.062499989E-3,5.499999970E-4,-3.244999796E-2
4.398890381E0,9.624999948E-4,5.499999970E-4,-2.928750031E-2
4.401390994E0,-1.099999994E-3,5.499999970E-4,-3.135000169E-2
4.403891535E0,-1.374999993E-4,1.649999991E-3,-3.135000169E-2
4.406391919E0,-1.374999993E-4,5.499999970E-4,-3.135000169E-2
4.408892442E0,2.062499989E-3,5.499999970E-4,-3.244999796E-2
4.411393057E0,-1.374999993E-4,-5.499999970E-4,-3.244999796E-2
4.413893444E0,9.624999948E-4,-5.499999970E-4,-3.355000168E-2
4.416393980E0,-1.374999993E-4,5.499999970E-4,-3.244999796E-2
4.418894596E0,-1.374999993E-4,5.499999970E-4,-3.671250120E-2
4.421394972E0,-1.374999993E-4,-5.499999970E-4,-3.355000168E-2
4.423895509E0,9.624999948E-4,-1.649999991E-3,-3.244999796E-2
4.426395895E0,9.624999948E-4,-5.499999970E-4,-3.038750030E-2
4.428896509E0,-1.374999993E-4,-5.499999970E-4,-2.928750031E-2
4.431397030E0,9.624999948E-4,-5.499999970E-4,-2.708750032E-2
4.433897415E0,-1.374999993E-4,5.499999970E-4,-2.708750032E-2
4.436397951E0,9.624999948E-4,-5.499999970E-4,-2.612499893E-2
4.438898567E0,9.624999948E-4,5.499999970E-4,-2.282499894E-2
4.441398963E0,9.624999948E-4,-1.649999991E-3,-1.966249943E-2
4.443899500E0,-1.374999993E-4,-5.499999970E-4,-1.856249943E-2
4.446399886E0,-1.374999993E-4,-2.612499986E-3,-1.649999991E-2
4.448900500E0,2.062499989E-3,-1.649999991E-3,-1.223750040E-2
4.451401035E0,-1.374999993E-4,-1.649999991E-3,-1.003750041E-2
4.453901420E0,2.062499989E-3,-5.499999970E-4,-9.074999951E-3
4.456402033E0,2.062499989E-3,5.499999970E-4,-6.874999963E-3
4.458902574E0,9.624999948E-4,-5.499999970E-4,-4.812499974E-3
4.461402958E0,-1.374999993E-4,-5.499999970E-4,-3.712499980E-3
4.463903495E0,9.624999948E-4,-2.612499986E-3,-2.612499986E-3
4.466404110E0,2.062499989E-3,5.499999970E-4,-5.499999970E-4
4.468904420E0,3.162499983E-3,-5.499999970E-4,2.612499986E-3
4.471405042E0,9.624999948E-4,5.499999970E-4,2.612499986E-3
4.473905429E0,9.624999948E-4,-5.499999970E-4,4.812499974E-3
4.476405965E0,9.624999948E-4,-1.649999991E-3,5.912499968E-3
4.478906352E0,-1.374999993E-4,1.649999991E-3,6.874999963E-3
4.481406946E0,-1.374999993E-4,5.499999970E-4,9.074999951E-3
4.483907487E0,-1.099999994E-3,5.499999970E-4,6.874999963E-3
4.486407871E0,-1.374999993E-4,5.499999970E-4,1.017499994E-2
4.488908485E0,9.624999948E-4,-2.612499986E-3,9.074999951E-3
4.491409025E0,-1.374999993E-4,5.499999970E-4,1.017499994E-2
4.493909405E0,-1.374999993E-4,5.499999970E-4,1.017499994E-2
4.496409941E0,9.624999948E-4,5.499999970E-4,1.113750041E-2
4.498910557E0,9.624999948E-4,-5.499999970E-4,1.333750039E-2
4.501410943E0,9.624999948E-4,5.499999970E-4,1.113750041E-2
4.503911491E0,-1.374999993E-4,5.499999970E-4,1.223750040E-2
4.506411878E0,9.624999948E-4,1.649999991E-3,1.223750040E-2
4.508912491E0,9.624999948E-4,1.649999991E-3,1.333750039E-2
4.511413031E0,-1.374999993E-4,1.649999991E-3,1.443750039E-2
4.513913421E0,-1.374999993E-4,5.499999970E-4,1.539999992E-2
4.516413957E0,9.624999948E-4,1.649999991E-3,1.539999992E-2
4.518914573E0,-1.374999993E-4,1.649999991E-3,1.759999990E-2
4.521414959E0,9.624999948E-4,2.612499986E-3,1.869999990E-2
4.523915481E0,-1.374999993E-4,5.499999970E-4,1.966249943E-2
4.526415868E0,9.624999948E-4,-5.499999970E-4,1.966249943E-2
4.528916481E0,-1.099999994E-3,-5.499999970E-4,2.186249942E-2
4.531417021E0,-1.374999993E-4,-5.499999970E-4,2.186249942E-2
4.533917406E0,2.062499989E-3,1.649999991E-3,2.392499894E-2
4.536418024E0,9.624999948E-4,5.499999970E-4,2.392499894E-2
4.538918334E0,9.624999948E-4,5.499999970E-4,2.392499894E-2
4.541418948E0,9.624999948E-4,5.499999970E-4,2.392499894E-2
4.543919486E0,9.624999948E-4,5.499999970E-4,2.502499893E-2
4.546419858E0,9.624999948E-4,1.649999991E-3,2.282499894E-2
4.548920394E0,9.624999948E-4,5.499999970E-4,2.282499894E-2
4.551421009E0,2.062499989E-3,-5.499999970E-4,2.392499894E-2
4.553921396E0,9.624999948E-4,-5.499999970E-4,2.282499894E-2
4.556421914E0,9.624999948E-4,1.649999991E-3,2.186249942E-2
4.558922300E0,9.624999948E-4,5.499999970E-4,2.076249942E-2
4.561422914E0,-1.374999993E-4,-5.499999970E-4,2.186249942E-2
4.563923454E0,9.624999948E-4,5.499999970E-4,1.966249943E-2
4.566423839E0,9.624999948E-4,5.499999970E-4,1.966249943E-2
4.568924452E0,9.624999948E-4,1.649999991E-3,2.076249942E-2
4.571424993E0,-1.374999993E-4,5.499999970E-4,1.759999990E-2
4.573925377E0,2.062499989E-3,1.649999991E-3,1.759999990E-2
4.576425914E0,9.624999948E-4,5.499999970E-4,1.759999990E-2
4.578926534E0,9.624999948E-4,5.499999970E-4,1.759999990E-2
4.581426921E0,9.624999948E-4,5.499999970E-4,1.869999990E-2
4.583927457E0,9.624999948E-4,-5.499999970E-4,1.649999991E-2
4.586427844E0,2.062499989E-3,5.499999970E-4,1.443750039E-2
4.588928490E0,-1.374999993E-4,5.499999970E-4,1.443750039E-2
4.591429031E0,2.062499989E-3,5.499999970E-4,1.443750039E-2
4.593929415E0,2.062499989E-3,-5.499999970E-4,1.113750041E-2
4.596429952E0,9.624999948E-4,-5.499999970E-4,1.113750041E-2
4.598930572E0,9.624999948E-4,1.649999991E-3,1.017499994E-2
4.601430959E0,9.624999948E-4,-2.612499986E-3,7.974999957E-3
4.603931495E0,-1.374999993E-4,-5.499999970E-4,5.912499968E-3
4.606432111E0,2.062499989E-3,-5.499999970E-4,4.812499974E-3
4.608932497E0,9.624999948E-4,5.499999970E-4,3.712499980E-3
4.611433034E0,9.624999948E-4,-5.499999970E-4,5.499999970E-4
4.613933420E0,-1.374999993E-4,-1.649999991E-3,-5.499999970E-4
4.616434034E0,2.062499989E-3,5.499999970E-4,-3.712499980E-3
4.618934574E0,2.062499989E-3,5.499999970E-4,-4.812499974E-3
4.621434940E0,-1.374999993E-4,5.499999970E-4,-9.074999951E-3
4.623935476E0,9.624999948E-4,5.499999970E-4,-1.113750041E-2
4.626435863E0,9.624999948E-4,-5.499999970E-4,-1.223750040E-2
4.628936399E0,-1.374999993E-4,-5.499999970E-4,-1.429999992E-2
4.631436986E0,-1.374999993E-4,5.499999970E-4,-1.759999990E-2
4.633937372E0,9.624999948E-4,1.649999991E-3,-1.856249943E-2
4.636437909E0,-1.374999993E-4,-5.499999970E-4,-1.966249943E-2
4.638938295E0,-1.374999993E-4,-5.499999970E-4,-1.966249943E-2
4.641438890E0,-1.099999994E-3,-5.499999970E-4,-2.282499894E-2
4.643939430E0,2.062499989E-3,5.499999970E-4,-2.282499894E-2
4.646439815E0,-1.374999993E-4,-5.499999970E-4,-2.076249942E-2
4.648940428E0,-1.374999993E-4,-1.649999991E-3,-2.392499894E-2
4.651440973E0,9.624999948E-4,-5.499999970E-4,-2.282499894E-2
4.653941357E0,-1.374999993E-4,-1.649999991E-3,-2.502499893E-2
4.656441894E0,-1.374999993E-4,5.499999970E-4,-2.392499894E-2
4.658942509E0,9.624999948E-4,1.649999991E-3,-2.502499893E-2
4.661442896E0,-1.374999993E-4,-5.499999970E-4,-2.392499894E-2
4.663943423E0,-1.374999993E-4,-1.649999991E-3,-2.818750031E-2
4.666443810E0,-1.374999993E-4,-5.499999970E-4,-2.612499893E-2
4.668944423E0,9.624999948E-4,-5.499999970E-4,-2.612499893E-2
4.671444964E0,-1.374999993E-4,5.499999970E-4,-2.928750031E-2
4.673945343E0,-1.374999993E-4,5.499999970E-4,-2.928750031E-2
4.676445880E0,-1.099999994E-3,5.499999970E-4,-3.038750030E-2
4.678946495E0,-1.374999993E-4,-1.649999991E-3,-2.928750031E-2
4.681446882E0,-1.374999993E-4,5.499999970E-4,-3.038750030E-2
4.683947408E0,-1.374999993E-4,5.499999970E-4,-3.355000168E-2
4.686448024E0,9.624999948E-4,-1.649999991E-3,-3.355000168E-2
4.688948410E0,9.624999948E-4,5.499999970E-4,-3.561250120E-2
4.691448947E0,-1.374999993E-4,-5.499999970E-4,-3.781250119E-2
4.693949328E0,-2.199999988E-3,-1.649999991E-3,-3.671250120E-2
4.696449942E0,-1.374999993E-4,5.499999970E-4,-3.561250120E-2
4.698950252E0,9.624999948E-4,-5.499999970E-4,-3.781250119E-2
4.701450865E0,-1.374999993E-4,-1.649999991E-3,-3.671250120E-2
4.703951423E0,-1.099999994E-3,-5.499999970E-4,-3.561250120E-2
4.706452039E0,-1.374999993E-4,5.499999970E-4,-3.671250120E-2
4.708952348E0,-1.099999994E-3,-5.499999970E-4,-3.451250121E-2
4.711452962E0,-1.099999994E-3,-5.499999970E-4,-3.355000168E-2
4.713953353E0,-1.374999993E-4,-1.649999991E-3,-3.355000168E-2
4.716453890E0,-1.099999994E-3,-1.649999991E-3,-3.244999796E-2
4.718954505E0,-1.374999993E-4,5.499999970E-4,-3.038750030E-2
4.721454892E0,2.062499989E-3,-5.499999970E-4,-2.818750031E-2
4.723955428E0,-1.374999993E-4,5.499999970E-4,-2.928750031E-2
4.726455805E0,9.624999948E-4,-2.612499986E-3,-2.502499893E-2
4.728956418E0,-1.374999993E-4,-5.499999970E-4,-2.282499894E-2
4.731456959E0,-1.374999993E-4,-1.649999991E-3,-2.076249942E-2
4.733957344E0,2.062499989E-3,5.499999970E-4,-1.966249943E-2
4.736457880E0,9.624999948E-4,-1.649999991E-3,-1.649999991E-2
4.738958495E0,-1.374999993E-4,-5.499999970E-4,-1.429999992E-2
4.741458882E0,9.624999948E-4,-1.649999991E-3,-1.333750039E-2
4.743959418E0,-1.374999993E-4,1.649999991E-3,-1.003750041E-2
4.746459805E0,9.624999948E-4,-5.499999970E-4,-1.003750041E-2
4.748960427E0,-1.374999993E-4,-5.499999970E-4,-9.074999951E-3
4.751460968E0,-1.374999993E-4,-5.499999970E-4,-5.774999969E-3
4.753961353E0,9.624999948E-4,-5.499999970E-4,-6.874999963E-3
4.756461966E0,9.624999948E-4,5.499999970E-4,-3.712499980E-3
4.758962482E0,-1.374999993E-4,5.499999970E-4,-1.649999991E-3
4.761462867E0,-1.374999993E-4,-5.499999970E-4,5.499999970E-4
4.763963404E0,-1.374999993E-4,-5.499999970E-4,1.649999991E-3
4.766464019E0,9.624999948E-4,-5.499999970E-4,4.812499974E-3
4.768964411E0,9.624999948E-4,1.649999991E-3,5.912499968E-3
4.771464947E0,-1.374999993E-4,-5.499999970E-4,7.974999957E-3
4.773965334E0,-1.374999993E-4,-1.649999991E-3,1.223750040E-2
4.776465870E0,-1.374999993E-4,-1.649999991E-3,1.113750041E-2
4.778966257E0,9.624999948E-4,-1.649999991E-3,1.443750039E-2
4.781466870E0,2.062499989E-3,5.499999970E-4,1.539999992E-2
4.783967411E0,9.624999948E-4,-5.499999970E-4,1.759999990E-2
4.786467795E0,9.624999948E-4,-5.499999970E-4,1.966249943E-2
4.788968409E0,-1.374999993E-4,-1.649999991E-3,2.076249942E-2
4.791468959E0,-1.374999993E-4,-1.649999991E-3,2.282499894E-2
4.793969344E0,-1.374999993E-4,1.649999991E-3,2.282499894E-2
4.796469880E0,2.062499989E-3,1.649999991E-3,2.502499893E-2
4.798970496E0,9.624999948E-4,1.649999991E-3,2.612499893E-2
4.801470882E0,9.624999948E-4,-1.649999991E-3,2.928750031E-2
4.803971419E0,2.062499989E-3,5.499999970E-4,2.928750031E-2
4.806471805E0,9.624999948E-4,5.499999970E-4,2.928750031E-2
4.808972419E0,9.624999948E-4,5.499999970E-4,3.135000169E-2
4.811472964E0,9.624999948E-4,5.499999970E-4,3.038750030E-2
4.813973349E0,9.624999948E-4,-5.499999970E-4,3.038750030E-2
4.816473885E0,2.062499989E-3,-5.499999970E-4,3.244999796E-2
4.818974501E0,9.624999948E-4,5.499999970E-4,3.038750030E-2
4.821474901E0,-1.374999993E-4,5.499999970E-4,3.038750030E-2
4.823975438E0,2.062499989E-3,-5.499999970E-4,3.038750030E-2
4.826476053E0,-1.374999993E-4,-5.499999970E-4,2.612499893E-2
4.828976440E0,9.624999948E-4,5.499999970E-4,2.928750031E-2
4.831476976E0,9.624999948E-4,-1.649999991E-3,2.612499893E-2
4.833977363E0,-1.099999994E-3,5.499999970E-4,2.392499894E-2
4.836477976E0,9.624999948E-4,-5.499999970E-4,2.392499894E-2
4.838978517E0,3.162499983E-3,-5.499999970E-4,2.612499893E-2
4.841478901E0,-1.374999993E-4,-5.499999970E-4,2.392499894E-2
4.843979438E0,9.624999948E-4,-1.649999991E-3,2.502499893E-2
4.846480053E0,9.624999948E-4,1.649999991E-3,2.392499894E-2
4.848980440E0,9.624999948E-4,5.499999970E-4,2.392499894E-2
4.851480976E0,9.624999948E-4,-1.649999991E-3,2.186249942E-2
4.853981368E0,2.062499989E-3,-5.499999970E-4,2.186249942E-2
4.856481904E0,2.062499989E-3,5.499999970E-4,2.186249942E-2
4.858982520E0,9.624999948E-4,5.499999970E-4,2.076249942E-2
4.861482906E0,9.624999948E-4,-5.499999970E-4,1.966249943E-2
4.863983457E0,-1.374999993E-4,-1.649999991E-3,1.966249943E-2
4.866483843E0,-1.099999994E-3,-1.649999991E-3,1.869999990E-2
4.868984457E0,9.624999948E-4,-5.499999970E-4,1.966249943E-2
4.871484997E0,-1.099999994E-3,1.649999991E-3,1.649999991E-2
4.873985382E0,2.062499989E-3,-5.499999970E-4,1.539999992E-2
4.876485922E0,-1.374999993E-4,-1.649999991E-3,1.759999990E-2
4.878986538E0,2.062499989E-3,-5.499999970E-4,1.649999991E-2
4.881486924E0,2.062499989E-3,5.499999970E-4,1.333750039E-2
4.883987461E0,9.624999948E-4,5.499999970E-4,1.333750039E-2
4.886487857E0,9.624999948E-4,-5.499999970E-4,1.333750039E-2
4.888988471E0,-1.099999994E-3,-1.649999991E-3,7.974999957E-3
4.891489011E0,-1.374999993E-4,-2.612499986E-3,7.974999957E-3
4.893989396E0,-1.374999993E-4,-5.499999970E-4,5.912499968E-3
4.896489960E0,-1.374999993E-4,-5.499999970E-4,3.712499980E-3
4.898990576E0,9.624999948E-4,-5.499999970E-4,2.612499986E-3
4.901490962E0,-1.099999994E-3,-5.499999970E-4,-1.649999991E-3
4.903991499E0,-1.374999993E-4,-1.649999991E-3,-2.612499986E-3
4.906492100E0,9.624999948E-4,-5.499999970E-4,-3.712499980E-3
4.908992487E0,-1.374999993E-4,5.499999970E-4,-4.812499974E-3
4.911493023E0,-1.374999993E-4,-5.499999970E-4,-5.774999969E-3
4.913993410E0,-1.374999993E-4,-5.499999970E-4,-5.774999969E-3
4.916494009E0,-1.374999993E-4,-1.649999991E-3,-7.974999957E-3
4.918994550E0,-1.374999993E-4,-5.499999970E-4,-9.074999951E-3
4.921494934E0,-1.374999993E-4,5.499999970E-4,-9.074999951E-3
4.923995471E0,-1.099999994E-3,-2.612499986E-3,-9.074999951E-3
4.926496072E0,-1.374999993E-4,-5.499999970E-4,-9.074999951E-3
4.928996459E0,-1.099999994E-3,-2.612499986E-3,-1.113750041E-2
4.931496995E0,-1.099999994E-3,-1.649999991E-3,-1.223750040E-2
