"Time (s)","Gyroscope x (rad/s)","Gyroscope y (rad/s)","Gyroscope z (rad/s)"
9.083792000E-3,5.166532472E-2,3.557983339E-1,2.237055451E-2
1.108340200E-2,5.166532472E-2,3.557983339E-1,2.237055451E-2
1.308371400E-2,5.166532472E-2,3.557983339E-1,2.237055451E-2
1.508355800E-2,5.166532472E-2,3.557983339E-1,2.237055451E-2
1.708383200E-2,5.166532472E-2,3.557983339E-1,2.237055451E-2
1.908391000E-2,5.166532472E-2,3.557983339E-1,2.237055451E-2
2.108508200E-2,5.166532472E-2,3.557983339E-1,2.237055451E-2
2.308539400E-2,5.166532472E-2,3.557983339E-1,2.237055451E-2
2.508582400E-2,5.166532472E-2,3.557983339E-1,2.237055451E-2
2.708570700E-2,5.166532472E-2,3.557983339E-1,2.237055451E-2
2.908625300E-2,5.166532472E-2,3.557983339E-1,2.237055451E-2
3.108766000E-2,5.166532472E-2,3.557983339E-1,2.237055451E-2
3.308824600E-2,5.166532472E-2,3.557983339E-1,2.237055451E-2
3.508894900E-2,5.166532472E-2,3.557983339E-1,2.237055451E-2
3.709019900E-2,5.166532472E-2,3.557983339E-1,2.237055451E-2
3.909121400E-2,5.166532472E-2,3.557983339E-1,2.237055451E-2
4.109207400E-2,1.810949668E-2,1.512675583E-1,1.171790902E-2
4.309308900E-2,1.864212751E-2,1.518001854E-1,1.065264456E-2
4.509422200E-2,1.757686399E-2,1.395496428E-1,1.225054078E-2
4.709457400E-2,1.438106969E-2,1.193096191E-1,1.384843793E-2
4.909480800E-2,1.225054078E-2,9.480853379E-2,1.331580617E-2
5.109558900E-2,9.054748341E-3,6.285060197E-2,1.331580617E-2
5.309637100E-2,5.858954508E-3,3.089267015E-2,1.331580617E-2
5.509851900E-2,5.326322280E-4,2.130528912E-3,1.278317347E-2
5.710039400E-2,-3.728425596E-3,-2.556634694E-2,1.384843793E-2
5.910113600E-2,-9.054748341E-3,-5.965480953E-2,1.651159860E-2
6.110176100E-2,-1.065264456E-2,-7.936219871E-2,1.651159860E-2
6.310211300E-2,-1.225054078E-2,-9.214537591E-2,1.384843793E-2
6.510262100E-2,-1.065264456E-2,-9.906959534E-2,1.651159860E-2
6.710312800E-2,-1.118527725E-2,-9.800432622E-2,1.384843793E-2
6.910394900E-2,-1.065264456E-2,-9.108011425E-2,1.491370238E-2
7.110512100E-2,-8.522115648E-3,-7.882957160E-2,1.384843793E-2
7.310582400E-2,-8.522115648E-3,-6.125270575E-2,1.438106969E-2
7.510707400E-2,-5.858954508E-3,-3.994741663E-2,1.331580617E-2
7.710801100E-2,-4.261057824E-3,-2.024002373E-2,1.491370238E-2
7.910836300E-2,1.597896684E-3,-1.597896684E-3,1.491370238E-2
8.110910500E-2,5.326322280E-4,1.757686399E-2,1.384843793E-2
8.310902700E-2,2.130528912E-3,3.568635881E-2,1.438106969E-2
8.510922200E-2,5.326322280E-3,4.740426689E-2,1.491370238E-2
8.710973000E-2,4.793690052E-3,5.912217870E-2,1.118527725E-2
8.910969100E-2,6.924218964E-3,6.072007492E-2,1.065264456E-2
9.111047200E-2,5.858954508E-3,5.912217870E-2,9.587380104E-3
9.311133200E-2,3.195793368E-3,5.805691332E-2,1.065264456E-2
9.511230800E-2,4.261057824E-3,4.846953228E-2,9.054748341E-3
9.711277700E-2,5.326322280E-3,4.261057824E-2,9.054748341E-3
9.911273800E-2,3.195793368E-3,2.822950855E-2,7.989482954E-3
1.011132070E-1,0.000000000E0,1.597896591E-2,5.326322280E-3
1.031130890E-1,-5.326322280E-4,1.065264456E-3,4.261057824E-3
1.051130110E-1,-1.065264456E-3,-7.989482954E-3,3.195793368E-3
1.071133630E-1,-2.663161140E-3,-1.864212751E-2,1.065264456E-3
1.091141830E-1,-4.793690052E-3,-2.716424316E-2,1.065264456E-3
1.111149250E-1,-7.456851192E-3,-3.355583176E-2,5.326322280E-4
1.131158630E-1,-5.326322280E-3,-3.834952042E-2,-5.326322280E-4
1.151157460E-1,-3.728425596E-3,-3.834952042E-2,-2.130528912E-3
1.171166830E-1,-4.793690052E-3,-3.728425503E-2,-3.728425596E-3
1.191174250E-1,-5.858954508E-3,-3.462109342E-2,-3.195793368E-3
1.211170740E-1,-3.195793368E-3,-2.929477207E-2,-3.195793368E-3
1.231163320E-1,-4.793690052E-3,-2.343581803E-2,-4.793690052E-3
1.251166440E-1,-1.597896684E-3,-1.491370238E-2,-3.195793368E-3
1.271177770E-1,-2.663161140E-3,-7.456851192E-3,-2.130528912E-3
1.291184020E-1,-3.195793368E-3,0.000000000E0,-1.597896684E-3
1.311200030E-1,-5.326322280E-4,4.261057824E-3,-5.326322280E-4
1.331205110E-1,0.000000000E0,1.065264456E-2,0.000000000E0
1.351210970E-1,1.597896684E-3,1.331580617E-2,0.000000000E0
1.371223860E-1,-5.326322280E-4,1.651159860E-2,-1.597896684E-3
1.391230890E-1,1.065264456E-3,1.704423130E-2,0.000000000E0
1.411235190E-1,1.065264456E-3,1.757686399E-2,-2.663161140E-3
1.431243780E-1,1.065264456E-3,1.704423130E-2,-2.130528912E-3
1.451255890E-1,-1.065264456E-3,1.384843793E-2,-2.663161140E-3
1.471268390E-1,-5.326322280E-4,9.587380104E-3,-1.065264456E-3
1.491281670E-1,-2.130528912E-3,4.793690052E-3,-4.793690052E-3
1.511290660E-1,1.597896684E-3,1.065264456E-3,-5.326322280E-3
1.531296130E-1,0.000000000E0,-4.261057824E-3,-7.456851192E-3
1.551294960E-1,-2.130528912E-3,-9.054748341E-3,-7.989482954E-3
1.571295740E-1,-2.663161140E-3,-1.331580617E-2,-1.012001187E-2
1.591309020E-1,-2.130528912E-3,-1.118527725E-2,-1.065264456E-2
1.611319570E-1,-3.195793368E-3,-1.491370238E-2,-1.065264456E-2
1.631333240E-1,-2.130528912E-3,-1.384843793E-2,-1.118527725E-2
1.651355500E-1,-2.663161140E-3,-1.597896591E-2,-1.331580617E-2
1.671369570E-1,-1.597896684E-3,-1.384843793E-2,-1.225054078E-2
1.691377380E-1,-1.597896684E-3,-1.171790902E-2,-1.331580617E-2
1.711382070E-1,-5.326322280E-4,-7.456851192E-3,-1.597896591E-2
1.731396520E-1,-2.130528912E-3,-7.989482954E-3,-1.491370238E-2
1.751407850E-1,-1.597896684E-3,-5.326322280E-3,-1.438106969E-2
1.771412920E-1,-5.326322280E-4,-1.597896684E-3,-1.810949668E-2
1.791423860E-1,-1.597896684E-3,1.597896684E-3,-1.651159860E-2
1.811434020E-1,0.000000000E0,5.326322280E-4,-1.810949668E-2
1.831441830E-1,-5.326322280E-4,4.793690052E-3,-2.024002373E-2
1.851444960E-1,-1.065264456E-3,3.195793368E-3,-2.237055451E-2
1.871458240E-1,5.326322280E-4,5.858954508E-3,-2.130528912E-2
1.891470740E-1,-5.326322280E-4,5.858954508E-3,-2.503371425E-2
1.911475420E-1,5.326322280E-4,4.793690052E-3,-2.396845073E-2
1.931491050E-1,-1.065264456E-3,3.728425596E-3,-2.396845073E-2
1.951504720E-1,5.326322280E-4,3.195793368E-3,-2.396845073E-2
1.971515270E-1,0.000000000E0,2.663161140E-3,-2.450108156E-2
1.991521910E-1,5.326322280E-4,1.597896684E-3,-2.450108156E-2
2.011530110E-1,-1.065264456E-3,0.000000000E0,-2.450108156E-2
2.031533240E-1,0.000000000E0,1.597896684E-3,-2.663161233E-2
2.051539880E-1,-1.597896684E-3,-2.663161140E-3,-2.609897964E-2
2.071544170E-1,0.000000000E0,-2.130528912E-3,-2.609897964E-2
2.091548470E-1,-1.065264456E-3,-3.728425596E-3,-2.876213938E-2
2.111553940E-1,1.597896684E-3,-4.261057824E-3,-3.195793182E-2
2.131556280E-1,5.326322280E-4,-4.793690052E-3,-3.515372798E-2
2.151563710E-1,1.065264456E-3,-4.793690052E-3,-3.515372798E-2
2.171575820E-1,-1.065264456E-3,-6.391586736E-3,-3.781688958E-2
2.191585970E-1,1.065264456E-3,-6.391586736E-3,-3.941478580E-2
2.211593780E-1,-1.597896684E-3,-5.858954508E-3,-4.048004746E-2
2.231601210E-1,-5.326322280E-4,-5.326322280E-3,-4.261057824E-2
2.251610580E-1,2.130528912E-3,-4.793690052E-3,-4.474110901E-2
2.271616830E-1,5.326322280E-4,-3.728425596E-3,-4.527373984E-2
2.291625820E-1,5.326322280E-4,-3.195793368E-3,-4.740426689E-2
2.311628160E-1,-5.326322280E-4,-1.597896684E-3,-4.846953228E-2
2.331635190E-1,2.130528912E-3,0.000000000E0,-4.953479767E-2
2.351644570E-1,5.326322280E-4,0.000000000E0,-5.060006306E-2
2.371651210E-1,5.326322280E-4,1.065264456E-3,-5.219795927E-2
2.391660190E-1,-5.326322280E-4,1.597896684E-3,-5.486112088E-2
2.411659020E-1,0.000000000E0,5.326322280E-4,-5.326322466E-2
2.431662140E-1,1.065264456E-3,1.065264456E-3,-5.379585549E-2
2.451668390E-1,3.195793368E-3,3.195793368E-3,-5.539375171E-2
2.471678160E-1,1.597896684E-3,1.597896684E-3,-5.486112088E-2
2.491696910E-1,3.728425596E-3,2.130528912E-3,-5.326322466E-2
2.511719170E-1,3.728425596E-3,1.597896684E-3,-5.539375171E-2
2.531732850E-1,2.130528912E-3,2.130528912E-3,-5.432848632E-2
2.551747690E-1,5.326322280E-4,2.130528912E-3,-5.645901710E-2
2.571758240E-1,1.597896684E-3,5.326322280E-4,-5.379585549E-2
2.591772690E-1,2.130528912E-3,1.065264456E-3,-5.486112088E-2
2.611781280E-1,2.130528912E-3,-1.065264456E-3,-5.166532472E-2
2.631794170E-1,1.597896684E-3,-2.663161140E-3,-5.326322466E-2
2.651803550E-1,2.130528912E-3,-3.728425596E-3,-5.486112088E-2
2.671809020E-1,0.000000000E0,-2.663161140E-3,-5.379585549E-2
2.691816050E-1,5.326322280E-4,-1.597896684E-3,-5.486112088E-2
2.711821130E-1,3.728425596E-3,-4.261057824E-3,-5.539375171E-2
2.731833240E-1,1.065264456E-3,-5.858954508E-3,-5.645901710E-2
2.751846130E-1,1.065264456E-3,-3.728425596E-3,-5.858954415E-2
2.771855500E-1,2.663161140E-3,-4.261057824E-3,-5.805691332E-2
2.791858630E-1,1.065264456E-3,-2.663161140E-3,-5.912217870E-2
2.811871130E-1,1.065264456E-3,-4.261057824E-3,-5.912217870E-2
2.831882850E-1,1.065264456E-3,-2.130528912E-3,-5.912217870E-2
2.851890660E-1,2.130528912E-3,-2.663161140E-3,-6.125270575E-2
2.871888710E-1,2.663161140E-3,-1.065264456E-3,-6.178534031E-2
2.891884800E-1,5.326322280E-4,5.326322280E-4,-6.231797114E-2
2.911890270E-1,2.130528912E-3,1.065264456E-3,-6.231797114E-2
2.931899250E-1,1.065264456E-3,1.597896684E-3,-6.391586363E-2
2.951909020E-1,2.130528912E-3,5.326322280E-4,-6.444849819E-2
2.971921130E-1,4.261057824E-3,1.065264456E-3,-6.604639441E-2
2.991931670E-1,2.663161140E-3,1.597896684E-3,-6.657902896E-2
3.011936360E-1,2.663161140E-3,2.130528912E-3,-6.711166352E-2
3.031936360E-1,2.663161140E-3,0.000000000E0,-6.817692518E-2
3.051946130E-1,4.793690052E-3,-2.663161140E-3,-7.030745596E-2
3.071951600E-1,3.728425596E-3,-5.326322280E-4,-7.030745596E-2
3.091956280E-1,1.065264456E-3,-1.065264456E-3,-7.190535218E-2
3.111963320E-1,3.728425596E-3,-1.597896684E-3,-7.456851006E-2
3.131972300E-1,3.195793368E-3,-3.728425596E-3,-7.190535218E-2
3.151988710E-1,2.663161140E-3,-3.728425596E-3,-7.137271762E-2
3.172000420E-1,4.261057824E-3,-4.793690052E-3,-7.297061384E-2
3.192004720E-1,1.597896684E-3,-5.326322280E-3,-7.190535218E-2
3.212016440E-1,2.663161140E-3,-3.728425596E-3,-7.137271762E-2
3.232018390E-1,4.793690052E-3,-4.793690052E-3,-7.190535218E-2
3.252001990E-1,3.728425596E-3,-3.195793368E-3,-7.190535218E-2
3.271996910E-1,3.728425596E-3,-1.597896684E-3,-7.084008306E-2
3.291992220E-1,3.195793368E-3,-2.663161140E-3,-6.657902896E-2
3.311993780E-1,4.793690052E-3,5.326322280E-4,-6.551376730E-2
3.332003940E-1,3.195793368E-3,5.326322280E-4,-6.444849819E-2
3.352016050E-1,3.728425596E-3,-5.326322280E-4,-6.178534031E-2
3.372028550E-1,3.195793368E-3,1.065264456E-3,-6.125270575E-2
3.392036360E-1,3.728425596E-3,5.326322280E-4,-5.912217870E-2
3.412041830E-1,5.326322280E-3,1.065264456E-3,-5.912217870E-2
3.432039100E-1,4.793690052E-3,1.065264456E-3,-5.645901710E-2
3.452033630E-1,3.728425596E-3,0.000000000E0,-5.539375171E-2
3.472030500E-1,4.261057824E-3,2.130528912E-3,-5.379585549E-2
3.492037140E-1,5.858954508E-3,1.597896684E-3,-5.219795927E-2
3.512041050E-1,4.261057824E-3,2.130528912E-3,-5.273059011E-2
3.532055500E-1,3.728425596E-3,0.000000000E0,-5.060006306E-2
3.552055890E-1,4.793690052E-3,1.065264456E-3,-4.900216311E-2
3.572059800E-1,5.326322280E-3,-3.195793368E-3,-4.793690145E-2
3.592074250E-1,3.195793368E-3,-1.597896684E-3,-4.527373984E-2
3.612087920E-1,3.728425596E-3,-2.663161140E-3,-4.420847446E-2
3.632104330E-1,4.261057824E-3,-2.663161140E-3,-4.048004746E-2
3.652118000E-1,6.391586736E-3,-2.663161140E-3,-3.781688958E-2
3.672141050E-1,5.858954508E-3,-2.130528912E-3,-3.781688958E-2
3.692162530E-1,5.326322280E-3,-3.195793368E-3,-3.621899337E-2
3.712182850E-1,4.793690052E-3,-1.597896684E-3,-3.568635881E-2
3.732204330E-1,5.858954508E-3,-5.326322280E-4,-3.355583176E-2
3.752217610E-1,3.728425596E-3,-3.728425596E-3,-2.929477207E-2
3.772230500E-1,6.391586736E-3,-3.195793368E-3,-2.929477207E-2
3.792237530E-1,5.858954508E-3,-1.597896684E-3,-2.663161233E-2
3.812238320E-1,6.391586736E-3,2.663161140E-3,-2.716424316E-2
3.832244960E-1,4.261057824E-3,2.130528912E-3,-2.503371425E-2
3.852245740E-1,4.793690052E-3,2.663161140E-3,-2.450108156E-2
3.872243780E-1,5.858954508E-3,3.728425596E-3,-2.237055451E-2
3.892254720E-1,5.326322280E-3,3.728425596E-3,-2.290318534E-2
3.912254720E-1,7.989482954E-3,7.989482954E-3,-2.183792181E-2
3.932261750E-1,6.924218964E-3,4.793690052E-3,-2.237055451E-2
3.952271910E-1,6.924218964E-3,6.391586736E-3,-2.077265643E-2
3.972286360E-1,6.391586736E-3,5.326322280E-3,-2.343581803E-2
3.992300420E-1,4.261057824E-3,5.326322280E-3,-2.183792181E-2
4.012307850E-1,6.924218964E-3,2.130528912E-3,-2.290318534E-2
4.032321520E-1,5.326322280E-3,5.326322280E-4,-2.077265643E-2
4.052330110E-1,7.456851192E-3,1.065264456E-3,-2.130528912E-2
4.072341440E-1,6.924218964E-3,-1.597896684E-3,-2.077265643E-2
4.092359020E-1,5.858954508E-3,-3.195793368E-3,-2.290318534E-2
4.112368780E-1,8.522115648E-3,-1.065264456E-3,-2.183792181E-2
4.132372690E-1,6.924218964E-3,5.326322280E-4,-2.024002373E-2
4.152387920E-1,5.858954508E-3,-5.326322280E-4,-2.077265643E-2
4.172402770E-1,6.391586736E-3,-5.326322280E-4,-2.077265643E-2
4.192420740E-1,5.858954508E-3,1.597896684E-3,-2.024002373E-2
4.212435580E-1,7.456851192E-3,5.326322280E-4,-1.917476021E-2
4.232451990E-1,6.924218964E-3,3.195793368E-3,-2.024002373E-2
4.252459410E-1,7.989482954E-3,3.728425596E-3,-1.864212751E-2
4.272467610E-1,7.989482954E-3,4.261057824E-3,-2.024002373E-2
4.292478160E-1,7.456851192E-3,5.858954508E-3,-2.024002373E-2
4.312491830E-1,7.989482954E-3,6.924218964E-3,-2.077265643E-2
4.332497690E-1,8.522115648E-3,9.054748341E-3,-2.130528912E-2
4.352505110E-1,7.456851192E-3,1.065264456E-2,-2.237055451E-2
4.372515270E-1,7.456851192E-3,9.054748341E-3,-2.077265643E-2
4.392530110E-1,7.989482954E-3,7.989482954E-3,-2.024002373E-2
4.412538320E-1,7.989482954E-3,6.391586736E-3,-1.864212751E-2
4.432543390E-1,7.456851192E-3,6.391586736E-3,-1.917476021E-2
4.452556670E-1,7.989482954E-3,5.858954508E-3,-1.810949668E-2
4.472575420E-1,8.522115648E-3,4.261057824E-3,-1.970739290E-2
4.492587530E-1,7.456851192E-3,2.663161140E-3,-1.970739290E-2
4.512588710E-1,7.456851192E-3,2.130528912E-3,-1.757686399E-2
4.532599250E-1,4.793690052E-3,5.326322280E-4,-1.864212751E-2
4.552604330E-1,7.989482954E-3,-1.597896684E-3,-1.917476021E-2
4.572603940E-1,7.456851192E-3,-2.130528912E-3,-1.917476021E-2
4.592609020E-1,7.989482954E-3,-1.065264456E-3,-1.864212751E-2
4.612617220E-1,5.858954508E-3,-4.793690052E-3,-1.757686399E-2
4.632622300E-1,6.391586736E-3,-3.195793368E-3,-1.757686399E-2
4.652629720E-1,4.793690052E-3,-5.326322280E-3,-1.704423130E-2
4.672647690E-1,5.858954508E-3,-4.261057824E-3,-1.757686399E-2
4.692664880E-1,6.391586736E-3,-2.663161140E-3,-1.544633508E-2
4.712679720E-1,7.989482954E-3,-1.065264456E-3,-1.491370238E-2
4.732690270E-1,7.456851192E-3,1.065264456E-3,-1.438106969E-2
4.752698080E-1,9.054748341E-3,1.597896684E-3,-9.587380104E-3
4.772708240E-1,6.391586736E-3,2.130528912E-3,-9.587380104E-3
4.792712140E-1,6.924218964E-3,4.261057824E-3,-7.456851192E-3
4.812721520E-1,7.989482954E-3,7.989482954E-3,-6.924218964E-3
4.832730500E-1,6.924218964E-3,5.326322280E-3,-6.391586736E-3
4.852744570E-1,6.924218964E-3,6.924218964E-3,-6.391586736E-3
4.872755110E-1,7.989482954E-3,7.989482954E-3,-5.858954508E-3
4.892763710E-1,8.522115648E-3,7.456851192E-3,-5.326322280E-3
4.912771130E-1,7.989482954E-3,7.456851192E-3,-4.261057824E-3
4.932782460E-1,7.456851192E-3,5.858954508E-3,-2.663161140E-3
4.952792610E-1,6.924218964E-3,7.989482954E-3,-5.326322280E-3
4.972799250E-1,6.391586736E-3,4.793690052E-3,-3.195793368E-3
4.992806670E-1,6.391586736E-3,3.728425596E-3,-3.195793368E-3
5.012808630E-1,6.391586736E-3,2.130528912E-3,-4.261057824E-3
5.032814880E-1,5.326322280E-3,0.000000000E0,-2.663161140E-3
5.052825820E-1,5.326322280E-3,0.000000000E0,-4.793690052E-3
5.072834020E-1,5.326322280E-3,-1.597896684E-3,-3.728425596E-3
5.092843390E-1,5.326322280E-3,-4.793690052E-3,-4.261057824E-3
5.112849250E-1,5.326322280E-3,-4.261057824E-3,-3.728425596E-3
5.132863320E-1,3.728425596E-3,-5.326322280E-3,-3.195793368E-3
5.152877770E-1,3.728425596E-3,-6.924218964E-3,-2.130528912E-3
5.172898860E-1,4.793690052E-3,-7.989482954E-3,-2.130528912E-3
5.192919960E-1,4.261057824E-3,-9.587380104E-3,-3.728425596E-3
5.212940660E-1,3.728425596E-3,-8.522115648E-3,-2.663161140E-3
5.232961360E-1,2.663161140E-3,-7.456851192E-3,-4.793690052E-3
5.252984020E-1,3.195793368E-3,-6.391586736E-3,-4.261057824E-3
5.273000420E-1,5.326322280E-3,-4.261057824E-3,-6.391586736E-3
5.293019570E-1,4.793690052E-3,-2.130528912E-3,-7.989482954E-3
5.313045350E-1,3.728425596E-3,-1.065264456E-3,-1.012001187E-2
5.333068000E-1,3.728425596E-3,1.065264456E-3,-1.065264456E-2
5.353087140E-1,4.793690052E-3,0.000000000E0,-1.331580617E-2
5.373108240E-1,4.793690052E-3,3.195793368E-3,-1.438106969E-2
5.393126210E-1,5.326322280E-3,2.663161140E-3,-1.810949668E-2
5.413146130E-1,5.326322280E-3,2.663161140E-3,-1.757686399E-2
5.433176210E-1,5.326322280E-3,1.597896684E-3,-1.917476021E-2
5.453194170E-1,3.728425596E-3,-5.326322280E-4,-1.917476021E-2
5.473215660E-1,3.728425596E-3,-5.326322280E-4,-2.024002373E-2
5.493235580E-1,4.793690052E-3,-4.261057824E-3,-2.130528912E-2
5.513257850E-1,2.130528912E-3,-4.793690052E-3,-2.183792181E-2
5.533277380E-1,2.663161140E-3,-4.793690052E-3,-2.290318534E-2
5.553298860E-1,1.065264456E-3,-6.391586736E-3,-2.183792181E-2
5.573321130E-1,2.663161140E-3,-9.587380104E-3,-2.396845073E-2
5.593341830E-1,2.130528912E-3,-9.054748341E-3,-2.450108156E-2
5.613364100E-1,1.597896684E-3,-9.054748341E-3,-2.343581803E-2
5.633375030E-1,6.391586736E-3,-6.924218964E-3,-2.556634694E-2
5.653384020E-1,2.663161140E-3,-7.456851192E-3,-2.769687586E-2
5.673390270E-1,3.195793368E-3,-6.924218964E-3,-2.876213938E-2
5.693395740E-1,2.130528912E-3,-5.858954508E-3,-3.036003746E-2
5.713401210E-1,3.728425596E-3,-4.261057824E-3,-3.408846259E-2
5.733410970E-1,1.065264456E-3,-2.130528912E-3,-3.675162420E-2
5.753430110E-1,3.195793368E-3,-2.663161140E-3,-3.994741663E-2
5.773450420E-1,1.597896684E-3,1.065264456E-3,-4.527373984E-2
5.793471520E-1,3.728425596E-3,3.195793368E-3,-4.740426689E-2
5.813486360E-1,4.793690052E-3,4.261057824E-3,-5.113269389E-2
5.833497690E-1,4.261057824E-3,6.391586736E-3,-5.432848632E-2
5.853504720E-1,3.195793368E-3,6.924218964E-3,-5.965480953E-2
5.873507460E-1,1.065264456E-3,6.924218964E-3,-6.231797114E-2
5.893515660E-1,1.065264456E-3,7.456851192E-3,-6.551376730E-2
5.913528160E-1,3.195793368E-3,5.326322280E-3,-6.977482140E-2
5.933541050E-1,2.130528912E-3,4.261057824E-3,-7.190535218E-2
5.953553940E-1,1.065264456E-3,3.728425596E-3,-7.456851006E-2
5.973568390E-1,1.597896684E-3,5.326322280E-4,-8.149272949E-2
5.993578940E-1,3.728425596E-3,-5.326322280E-4,-8.042746782E-2
6.013589490E-1,3.195793368E-3,-6.391586736E-3,-8.096009493E-2
6.033613710E-1,1.597896684E-3,-1.225054078E-2,-7.723167539E-2
6.053622300E-1,1.065264456E-3,-1.171790902E-2,-7.243798673E-2
6.073636750E-1,1.065264456E-3,-1.278317347E-2,-7.030745596E-2
6.093651990E-1,-5.326322280E-4,-1.225054078E-2,-6.817692518E-2
6.113666830E-1,5.326322280E-4,-1.651159860E-2,-6.551376730E-2
6.133677770E-1,0.000000000E0,-1.225054078E-2,-6.285060197E-2
6.153689490E-1,5.326322280E-4,-1.331580617E-2,-6.018744037E-2
6.173691440E-1,1.065264456E-3,-1.225054078E-2,-5.645901710E-2
6.193697690E-1,2.663161140E-3,-9.587380104E-3,-5.326322466E-2
6.213707070E-1,1.597896684E-3,-6.924218964E-3,-4.900216311E-2
6.233714490E-1,0.000000000E0,-3.195793368E-3,-4.420847446E-2
6.253721520E-1,1.597896684E-3,-2.130528912E-3,-4.314320907E-2
6.273720350E-1,1.597896684E-3,0.000000000E0,-3.941478580E-2
6.293724250E-1,2.130528912E-3,2.130528912E-3,-3.515372798E-2
6.313731670E-1,5.326322280E-4,3.728425596E-3,-3.195793182E-2
6.333742220E-1,1.065264456E-3,5.858954508E-3,-2.822950855E-2
6.353751600E-1,4.261057824E-3,5.858954508E-3,-2.663161233E-2
6.373759410E-1,2.130528912E-3,5.858954508E-3,-2.450108156E-2
6.393772690E-1,4.793690052E-3,6.924218964E-3,-2.024002373E-2
6.413784020E-1,1.065264456E-3,3.728425596E-3,-1.757686399E-2
6.433794570E-1,4.261057824E-3,2.663161140E-3,-1.597896591E-2
6.453821520E-1,2.130528912E-3,2.130528912E-3,-1.384843793E-2
6.473834020E-1,5.326322280E-3,2.130528912E-3,-1.118527725E-2
6.493842610E-1,5.326322280E-4,0.000000000E0,-7.456851192E-3
6.513854330E-1,1.597896684E-3,-2.130528912E-3,-4.261057824E-3
6.533866830E-1,3.728425596E-3,-2.130528912E-3,-1.597896684E-3
6.553881280E-1,1.065264456E-3,-5.326322280E-3,2.130528912E-3
6.573904330E-1,2.130528912E-3,-2.130528912E-3,5.858954508E-3
6.593921520E-1,1.065264456E-3,-1.065264456E-3,7.989482954E-3
6.613940270E-1,1.597896684E-3,-1.597896684E-3,8.522115648E-3
6.633958630E-1,2.663161140E-3,-2.130528912E-3,1.118527725E-2
6.653980890E-1,1.065264456E-3,-1.065264456E-3,1.384843793E-2
6.674000420E-1,2.130528912E-3,2.663161140E-3,1.331580617E-2
6.694016440E-1,2.130528912E-3,2.130528912E-3,1.438106969E-2
6.714026990E-1,2.130528912E-3,1.065264456E-3,1.331580617E-2
6.734036750E-1,3.195793368E-3,3.195793368E-3,1.278317347E-2
6.754053940E-1,2.663161140E-3,4.261057824E-3,1.597896591E-2
6.774060970E-1,5.858954508E-3,4.261057824E-3,1.704423130E-2
6.794072690E-1,3.728425596E-3,4.793690052E-3,1.651159860E-2
6.814083240E-1,2.663161140E-3,3.728425596E-3,1.651159860E-2
6.834089100E-1,2.130528912E-3,2.663161140E-3,1.757686399E-2
6.854098860E-1,2.130528912E-3,2.130528912E-3,1.970739290E-2
6.874098860E-1,2.663161140E-3,2.130528912E-3,2.290318534E-2
6.894101210E-1,5.326322280E-4,-1.597896684E-3,2.396845073E-2
6.914104330E-1,2.130528912E-3,-3.195793368E-3,2.503371425E-2
6.934109020E-1,2.663161140E-3,-2.663161140E-3,2.556634694E-2
6.954114490E-1,1.597896684E-3,-6.391586736E-3,2.450108156E-2
6.974117220E-1,1.065264456E-3,-5.326322280E-3,2.450108156E-2
6.994123080E-1,1.597896684E-3,-3.728425596E-3,2.822950855E-2
7.014132070E-1,2.130528912E-3,-4.793690052E-3,3.142530099E-2
7.034144570E-1,4.261057824E-3,-1.597896684E-3,3.142530099E-2
7.054164490E-1,1.065264456E-3,-5.326322280E-4,3.195793182E-2
7.074176210E-1,4.793690052E-3,1.065264456E-3,2.982740477E-2
7.094193390E-1,2.663161140E-3,2.130528912E-3,2.929477207E-2
7.114200420E-1,1.065264456E-3,5.326322280E-3,3.142530099E-2
7.134215270E-1,2.130528912E-3,5.326322280E-3,2.982740477E-2
7.154222690E-1,3.195793368E-3,6.924218964E-3,2.822950855E-2
7.174239880E-1,3.728425596E-3,9.054748341E-3,2.716424316E-2
7.194247690E-1,2.130528912E-3,9.587380104E-3,2.876213938E-2
7.214264100E-1,4.261057824E-3,1.171790902E-2,2.716424316E-2
7.234278940E-1,2.130528912E-3,1.065264456E-2,2.822950855E-2
7.254303550E-1,3.195793368E-3,1.225054078E-2,2.769687586E-2
7.274325030E-1,3.728425596E-3,7.989482954E-3,2.556634694E-2
7.294344960E-1,2.663161140E-3,4.793690052E-3,2.556634694E-2
7.314362920E-1,2.130528912E-3,4.261057824E-3,2.343581803E-2
7.334389100E-1,1.597896684E-3,3.728425596E-3,2.237055451E-2
7.354414490E-1,2.130528912E-3,3.728425596E-3,1.970739290E-2
7.374433240E-1,1.065264456E-3,5.326322280E-4,1.917476021E-2
7.394450420E-1,1.065264456E-3,-3.195793368E-3,1.544633508E-2
7.414469960E-1,1.597896684E-3,-3.728425596E-3,1.544633508E-2
7.434489100E-1,5.326322280E-4,-6.391586736E-3,1.171790902E-2
7.454503550E-1,1.065264456E-3,-4.793690052E-3,6.924218964E-3
7.474523470E-1,1.065264456E-3,-8.522115648E-3,6.391586736E-3
7.494541440E-1,1.065264456E-3,-7.456851192E-3,3.728425596E-3
7.514549640E-1,5.326322280E-4,-6.391586736E-3,-1.065264456E-3
7.534562920E-1,1.065264456E-3,-3.728425596E-3,-3.195793368E-3
7.554576990E-1,5.326322280E-4,-3.195793368E-3,-4.261057824E-3
7.574594960E-1,5.326322280E-4,-5.326322280E-4,-5.326322280E-3
7.594612920E-1,1.065264456E-3,2.663161140E-3,-7.456851192E-3
7.614621910E-1,5.326322280E-4,2.130528912E-3,-1.065264456E-2
7.634632070E-1,-1.065264456E-3,2.663161140E-3,-1.065264456E-2
7.654645350E-1,3.195793368E-3,2.130528912E-3,-1.278317347E-2
7.674648860E-1,5.326322280E-4,2.663161140E-3,-1.491370238E-2
7.694654330E-1,1.597896684E-3,2.663161140E-3,-1.651159860E-2
7.714661750E-1,5.326322280E-4,2.663161140E-3,-1.864212751E-2
7.734675030E-1,0.000000000E0,1.065264456E-3,-1.704423130E-2
7.754684800E-1,1.597896684E-3,-5.326322280E-4,-1.810949668E-2
7.774690660E-1,-5.326322280E-4,-2.130528912E-3,-2.237055451E-2
7.794693000E-1,2.663161140E-3,-2.663161140E-3,-2.077265643E-2
7.814702770E-1,-1.065264456E-3,-5.326322280E-3,-2.503371425E-2
7.834716830E-1,-5.326322280E-4,-7.989482954E-3,-2.396845073E-2
7.854726600E-1,5.326322280E-4,-5.858954508E-3,-2.450108156E-2
7.874740660E-1,-1.065264456E-3,-7.456851192E-3,-2.503371425E-2
7.894756280E-1,-5.326322280E-4,-8.522115648E-3,-2.450108156E-2
7.914771520E-1,-3.728425596E-3,-9.054748341E-3,-2.609897964E-2
7.934785970E-1,-2.130528912E-3,-1.065264456E-2,-2.716424316E-2
7.954801990E-1,1.065264456E-3,-9.054748341E-3,-2.503371425E-2
7.974818390E-1,-1.597896684E-3,-9.587380104E-3,-2.290318534E-2
7.994825420E-1,-5.326322280E-4,-6.391586736E-3,-2.237055451E-2
8.014824250E-1,0.000000000E0,-2.663161140E-3,-2.077265643E-2
8.034832070E-1,2.663161140E-3,-2.130528912E-3,-1.917476021E-2
8.054841830E-1,5.326322280E-4,-1.597896684E-3,-2.024002373E-2
8.074857070E-1,5.326322280E-4,1.065264456E-3,-1.864212751E-2
8.094877380E-1,1.597896684E-3,4.261057824E-3,-1.544633508E-2
8.114887920E-1,0.000000000E0,5.858954508E-3,-1.544633508E-2
8.134894570E-1,2.130528912E-3,5.858954508E-3,-1.331580617E-2
8.154909410E-1,2.663161140E-3,4.793690052E-3,-1.331580617E-2
8.174924640E-1,1.065264456E-3,6.924218964E-3,-1.278317347E-2
8.194940660E-1,2.130528912E-3,5.858954508E-3,-1.544633508E-2
8.214951210E-1,1.597896684E-3,6.924218964E-3,-1.491370238E-2
8.234969170E-1,-1.065264456E-3,6.924218964E-3,-1.597896591E-2
8.254980890E-1,1.597896684E-3,6.924218964E-3,-1.757686399E-2
8.274994170E-1,-5.326322280E-4,4.793690052E-3,-2.077265643E-2
8.294998470E-1,5.326322280E-4,3.728425596E-3,-1.810949668E-2
8.315001210E-1,5.326322280E-4,3.728425596E-3,-1.917476021E-2
8.335002770E-1,5.326322280E-4,5.326322280E-4,-2.024002373E-2
8.355010580E-1,1.597896684E-3,-2.663161140E-3,-1.917476021E-2
8.375023470E-1,1.597896684E-3,-2.663161140E-3,-1.810949668E-2
8.395033240E-1,5.326322280E-4,-3.195793368E-3,-1.917476021E-2
8.415041830E-1,-1.065264456E-3,-4.793690052E-3,-1.810949668E-2
8.435052380E-1,2.130528912E-3,-3.728425596E-3,-1.757686399E-2
8.455067220E-1,-5.326322280E-4,-5.326322280E-3,-1.331580617E-2
8.475078160E-1,1.065264456E-3,-3.728425596E-3,-1.171790902E-2
8.495093000E-1,-5.326322280E-4,-1.597896684E-3,-9.054748341E-3
8.515105890E-1,5.326322280E-4,0.000000000E0,-6.391586736E-3
8.535117220E-1,2.130528912E-3,-2.663161140E-3,-4.793690052E-3
8.555125820E-1,1.065264456E-3,1.065264456E-3,-2.663161140E-3
8.575135580E-1,1.065264456E-3,5.326322280E-4,-3.195793368E-3
8.595145350E-1,3.728425596E-3,3.195793368E-3,-1.597896684E-3
8.615150030E-1,2.663161140E-3,2.663161140E-3,0.000000000E0
8.635159800E-1,1.597896684E-3,4.793690052E-3,5.326322280E-4
8.655173080E-1,3.728425596E-3,5.326322280E-3,1.597896684E-3
8.675191050E-1,5.326322280E-4,3.195793368E-3,3.195793368E-3
8.695206670E-1,2.130528912E-3,3.728425596E-3,5.858954508E-3
8.715224250E-1,2.130528912E-3,4.261057824E-3,7.989482954E-3
8.735233240E-1,2.130528912E-3,3.195793368E-3,1.065264456E-2
8.755243000E-1,2.130528912E-3,4.261057824E-3,1.118527725E-2
8.775254330E-1,1.065264456E-3,2.663161140E-3,1.331580617E-2
8.795264880E-1,0.000000000E0,-5.326322280E-4,1.491370238E-2
8.815275030E-1,2.130528912E-3,-1.597896684E-3,1.810949668E-2
8.835284410E-1,1.065264456E-3,-5.326322280E-3,1.810949668E-2
8.855293780E-1,1.065264456E-3,-3.195793368E-3,2.237055451E-2
8.875310580E-1,1.597896684E-3,-4.261057824E-3,2.343581803E-2
8.895328550E-1,5.326322280E-4,-1.065264456E-3,2.343581803E-2
8.915342610E-1,1.597896684E-3,-3.728425596E-3,2.556634694E-2
8.935353550E-1,1.597896684E-3,-5.326322280E-3,2.876213938E-2
8.955378160E-1,0.000000000E0,-3.195793368E-3,2.769687586E-2
8.975395740E-1,3.195793368E-3,-3.728425596E-3,3.195793182E-2
8.995414100E-1,3.195793368E-3,5.326322280E-4,3.302319720E-2
9.015428160E-1,2.663161140E-3,1.065264456E-3,3.462109342E-2
9.035446520E-1,2.663161140E-3,1.065264456E-3,3.515372798E-2
9.055468780E-1,1.597896684E-3,1.597896684E-3,3.675162420E-2
9.075475820E-1,3.728425596E-3,3.195793368E-3,3.781688958E-2
9.095485580E-1,1.597896684E-3,4.793690052E-3,3.621899337E-2
9.115496520E-1,2.663161140E-3,9.587380104E-3,3.888215125E-2
9.135512140E-1,4.261057824E-3,8.522115648E-3,4.048004746E-2
9.155521520E-1,2.130528912E-3,8.522115648E-3,4.154531285E-2
9.175529330E-1,2.130528912E-3,9.054748341E-3,4.101268202E-2
9.195547690E-1,4.261057824E-3,7.989482954E-3,4.314320907E-2
9.215574250E-1,3.728425596E-3,7.989482954E-3,4.527373984E-2
9.235595350E-1,1.597896684E-3,5.858954508E-3,4.633900523E-2
9.255617610E-1,2.130528912E-3,3.728425596E-3,4.793690145E-2
9.275633240E-1,3.728425596E-3,3.728425596E-3,4.740426689E-2
9.295646520E-1,2.663161140E-3,-5.326322280E-4,4.793690145E-2
9.315659020E-1,1.597896684E-3,-1.597896684E-3,5.113269389E-2
9.335678940E-1,-5.326322280E-4,-2.663161140E-3,5.060006306E-2
9.355694960E-1,1.597896684E-3,-3.728425596E-3,5.166532472E-2
9.375703940E-1,2.663161140E-3,-4.261057824E-3,5.645901710E-2
9.395714100E-1,5.326322280E-4,-5.858954508E-3,5.805691332E-2
9.415727770E-1,2.130528912E-3,-5.326322280E-3,5.965480953E-2
9.435745350E-1,1.065264456E-3,-5.858954508E-3,6.018744037E-2
9.455767610E-1,2.663161140E-3,-5.858954508E-3,5.752427876E-2
9.475786750E-1,4.261057824E-3,-3.195793368E-3,5.912217870E-2
9.495797300E-1,3.728425596E-3,-2.130528912E-3,5.752427876E-2
9.515807070E-1,2.663161140E-3,2.130528912E-3,5.805691332E-2
9.535817610E-1,2.130528912E-3,3.195793368E-3,5.752427876E-2
9.555830110E-1,3.728425596E-3,5.326322280E-3,5.486112088E-2
9.575849250E-1,4.793690052E-3,5.858954508E-3,5.326322466E-2
9.595874640E-1,3.728425596E-3,1.012001187E-2,5.006742850E-2
9.615898080E-1,2.663161140E-3,9.054748341E-3,4.793690145E-2
9.635913710E-1,3.728425596E-3,9.587380104E-3,4.314320907E-2
9.655938320E-1,3.195793368E-3,1.225054078E-2,3.941478580E-2
9.675968390E-1,3.195793368E-3,1.118527725E-2,3.781688958E-2
9.695991440E-1,3.728425596E-3,1.118527725E-2,3.621899337E-2
9.716015660E-1,2.130528912E-3,1.118527725E-2,3.462109342E-2
9.736040270E-1,2.663161140E-3,6.924218964E-3,3.302319720E-2
9.756060190E-1,2.663161140E-3,5.858954508E-3,3.036003746E-2
9.776085190E-1,2.130528912E-3,5.858954508E-3,2.929477207E-2
9.796106670E-1,5.326322280E-4,1.597896684E-3,2.609897964E-2
9.816128160E-1,3.195793368E-3,5.326322280E-4,2.396845073E-2
9.836153940E-1,2.130528912E-3,-5.326322280E-4,2.130528912E-2
9.856178550E-1,4.261057824E-3,-3.728425596E-3,1.810949668E-2
9.876193390E-1,1.065264456E-3,-4.793690052E-3,1.544633508E-2
9.896205110E-1,2.130528912E-3,-5.858954508E-3,1.225054078E-2
9.916218390E-1,2.130528912E-3,-7.456851192E-3,9.587380104E-3
9.936230500E-1,2.663161140E-3,-7.456851192E-3,7.989482954E-3
9.956249640E-1,4.793690052E-3,-6.391586736E-3,3.728425596E-3
9.976266830E-1,1.065264456E-3,-1.597896684E-3,0.000000000E0
9.996279720E-1,1.597896684E-3,-1.065264456E-3,-2.663161140E-3
1.001629769E0,1.065264456E-3,1.597896684E-3,-1.597896684E-3
1.003631097E0,1.065264456E-3,4.793690052E-3,-5.326322280E-3
1.005632113E0,3.728425596E-3,3.728425596E-3,-6.924218964E-3
1.007633089E0,3.195793368E-3,5.858954508E-3,-6.924218964E-3
1.009633753E0,2.130528912E-3,5.858954508E-3,-1.012001187E-2
1.011634847E0,4.261057824E-3,6.924218964E-3,-1.012001187E-2
1.013636644E0,5.326322280E-3,1.012001187E-2,-1.065264456E-2
1.015638167E0,2.130528912E-3,6.924218964E-3,-1.118527725E-2
1.017640042E0,1.597896684E-3,5.326322280E-3,-1.225054078E-2
1.019642269E0,1.597896684E-3,1.597896684E-3,-1.331580617E-2
1.021643597E0,5.326322280E-4,1.597896684E-3,-1.438106969E-2
1.023645042E0,2.663161140E-3,-1.065264456E-3,-1.597896591E-2
1.025646488E0,2.130528912E-3,-4.261057824E-3,-1.597896591E-2
1.027648207E0,5.326322280E-4,-6.391586736E-3,-1.651159860E-2
1.029650238E0,5.326322280E-4,-7.456851192E-3,-1.597896591E-2
1.031650980E0,5.326322280E-4,-1.171790902E-2,-1.757686399E-2
1.033652269E0,5.326322280E-4,-1.065264456E-2,-2.024002373E-2
1.035653832E0,1.065264456E-3,-1.278317347E-2,-2.130528912E-2
1.037655199E0,2.130528912E-3,-1.118527725E-2,-2.237055451E-2
1.039656683E0,0.000000000E0,-1.065264456E-2,-2.237055451E-2
1.041657699E0,2.130528912E-3,-9.587380104E-3,-2.183792181E-2
1.043659027E0,1.065264456E-3,-7.456851192E-3,-2.183792181E-2
1.045660746E0,1.065264456E-3,-1.597896684E-3,-2.130528912E-2
1.047661917E0,2.130528912E-3,-1.597896684E-3,-2.183792181E-2
1.049663011E0,2.663161140E-3,0.000000000E0,-2.343581803E-2
1.051664144E0,4.261057824E-3,4.261057824E-3,-2.503371425E-2
1.053666292E0,1.065264456E-3,4.793690052E-3,-2.556634694E-2
1.055667972E0,3.195793368E-3,5.858954508E-3,-2.290318534E-2
1.057669339E0,3.728425596E-3,6.924218964E-3,-2.663161233E-2
1.059671332E0,2.130528912E-3,5.326322280E-3,-2.450108156E-2
1.061673128E0,2.130528912E-3,5.858954508E-3,-2.556634694E-2
1.063676019E0,2.130528912E-3,6.924218964E-3,-2.503371425E-2
1.065677855E0,2.663161140E-3,3.195793368E-3,-2.450108156E-2
1.067679261E0,3.195793368E-3,2.130528912E-3,-2.503371425E-2
1.069679886E0,1.597896684E-3,2.130528912E-3,-2.237055451E-2
1.071681214E0,2.130528912E-3,1.597896684E-3,-2.183792181E-2
1.073682347E0,1.065264456E-3,5.326322280E-4,-2.077265643E-2
1.075684105E0,1.065264456E-3,-2.663161140E-3,-1.970739290E-2
1.077685316E0,0.000000000E0,-4.261057824E-3,-1.704423130E-2
1.079686019E0,2.663161140E-3,-4.793690052E-3,-1.757686399E-2
1.081687660E0,2.130528912E-3,-3.728425596E-3,-1.704423130E-2
1.083688792E0,1.597896684E-3,-5.858954508E-3,-1.704423130E-2
1.085690042E0,5.326322280E-4,-4.261057824E-3,-1.438106969E-2
1.087691488E0,2.663161140E-3,-3.195793368E-3,-1.491370238E-2
1.089692972E0,2.663161140E-3,-1.065264456E-3,-1.544633508E-2
1.091695355E0,2.130528912E-3,-5.326322280E-4,-1.118527725E-2
1.093697152E0,1.065264456E-3,5.326322280E-4,-1.225054078E-2
1.095699652E0,2.130528912E-3,5.326322280E-4,-1.012001187E-2
1.097702308E0,2.663161140E-3,0.000000000E0,-8.522115648E-3
1.099704183E0,3.195793368E-3,0.000000000E0,-8.522115648E-3
1.101705472E0,4.261057824E-3,3.195793368E-3,-8.522115648E-3
1.103706214E0,2.663161140E-3,2.130528912E-3,-7.456851192E-3
1.105707113E0,2.663161140E-3,5.326322280E-4,-6.391586736E-3
1.107708324E0,2.130528912E-3,1.597896684E-3,-4.261057824E-3
1.109709066E0,4.261057824E-3,0.000000000E0,-3.195793368E-3
1.111709613E0,3.728425596E-3,4.261057824E-3,-3.195793368E-3
1.113711253E0,2.663161140E-3,0.000000000E0,-1.597896684E-3
1.115712542E0,3.728425596E-3,2.130528912E-3,-1.065264456E-3
1.117713363E0,3.195793368E-3,5.326322280E-4,-1.065264456E-3
1.119714613E0,2.130528912E-3,5.326322280E-4,-1.065264456E-3
1.121715941E0,2.130528912E-3,0.000000000E0,5.326322280E-4
1.123716957E0,1.597896684E-3,-1.065264456E-3,-1.065264456E-3
1.125718832E0,1.597896684E-3,-5.326322280E-4,1.065264456E-3
1.127720902E0,1.597896684E-3,-2.130528912E-3,3.195793368E-3
1.129722738E0,1.065264456E-3,5.326322280E-4,4.793690052E-3
1.131724808E0,2.130528912E-3,2.130528912E-3,7.456851192E-3
1.133726292E0,1.065264456E-3,1.065264456E-3,9.054748341E-3
1.135728949E0,5.326322280E-4,1.065264456E-3,1.171790902E-2
1.137730785E0,4.261057824E-3,2.130528912E-3,1.118527725E-2
1.139732855E0,1.597896684E-3,1.597896684E-3,1.225054078E-2
1.141734652E0,1.065264456E-3,-3.195793368E-3,1.438106969E-2
1.143736058E0,1.065264456E-3,-1.065264456E-3,1.491370238E-2
1.145737621E0,4.261057824E-3,-3.728425596E-3,1.597896591E-2
1.147739691E0,1.597896684E-3,-5.326322280E-3,1.651159860E-2
1.149741175E0,1.597896684E-3,-4.793690052E-3,1.757686399E-2
1.151742425E0,5.326322280E-4,-6.924218964E-3,1.810949668E-2
1.153743675E0,1.597896684E-3,-9.054748341E-3,2.077265643E-2
1.155744613E0,-5.326322280E-4,-5.858954508E-3,2.024002373E-2
1.157746371E0,1.065264456E-3,-9.054748341E-3,2.077265643E-2
1.159747699E0,3.195793368E-3,-3.728425596E-3,2.077265643E-2
1.161749730E0,5.326322280E-4,-4.793690052E-3,2.183792181E-2
1.163752230E0,2.130528912E-3,-5.326322280E-4,2.290318534E-2
1.165754574E0,3.195793368E-3,1.065264456E-3,2.503371425E-2
1.167756917E0,2.663161140E-3,4.793690052E-3,2.450108156E-2
1.169758558E0,2.130528912E-3,3.195793368E-3,2.556634694E-2
1.171759339E0,3.728425596E-3,4.261057824E-3,2.663161233E-2
1.173760355E0,2.130528912E-3,6.391586736E-3,2.609897964E-2
1.175761214E0,2.130528912E-3,5.326322280E-3,2.769687586E-2
1.177762542E0,4.261057824E-3,5.326322280E-3,2.716424316E-2
1.179763949E0,3.195793368E-3,2.130528912E-3,2.769687586E-2
1.181765316E0,1.597896684E-3,2.130528912E-3,2.982740477E-2
1.183766722E0,4.261057824E-3,1.065264456E-3,3.195793182E-2
1.185768050E0,1.597896684E-3,-1.065264456E-3,3.249056637E-2
1.187768519E0,3.195793368E-3,-1.065264456E-3,3.195793182E-2
1.189769339E0,5.326322280E-4,-2.130528912E-3,3.355583176E-2
1.191771449E0,4.261057824E-3,-2.130528912E-3,3.408846259E-2
1.193772582E0,2.130528912E-3,-5.326322280E-4,3.781688958E-2
1.195773558E0,3.195793368E-3,-5.326322280E-4,3.941478580E-2
1.197774925E0,3.728425596E-3,2.663161140E-3,3.994741663E-2
1.199775863E0,3.195793368E-3,2.130528912E-3,4.367584363E-2
1.201777035E0,1.597896684E-3,4.261057824E-3,4.420847446E-2
1.203778363E0,3.195793368E-3,4.793690052E-3,4.580637068E-2
1.205779769E0,3.728425596E-3,5.326322280E-3,4.633900523E-2
1.207781253E0,3.728425596E-3,5.858954508E-3,4.900216311E-2
1.209781957E0,4.261057824E-3,4.793690052E-3,4.633900523E-2
1.211783441E0,2.663161140E-3,5.326322280E-3,4.687163606E-2
1.213785277E0,3.728425596E-3,4.793690052E-3,4.793690145E-2
1.215787816E0,5.858954508E-3,5.326322280E-4,4.900216311E-2
1.217789339E0,3.728425596E-3,2.663161140E-3,4.900216311E-2
1.219791292E0,3.728425596E-3,1.065264456E-3,4.953479767E-2
1.221793480E0,-1.597896684E-3,-1.065264456E-3,5.219795927E-2
1.223794730E0,2.130528912E-3,-3.195793368E-3,5.326322466E-2
1.225797035E0,1.065264456E-3,-2.130528912E-3,5.486112088E-2
1.227798988E0,-1.065264456E-3,-4.261057824E-3,5.539375171E-2
1.229801332E0,2.130528912E-3,-3.728425596E-3,5.699164793E-2
1.231802855E0,1.597896684E-3,-3.728425596E-3,5.805691332E-2
1.233804027E0,2.130528912E-3,-3.728425596E-3,6.018744037E-2
1.235805238E0,3.728425596E-3,-2.663161140E-3,6.285060197E-2
1.237805550E0,3.195793368E-3,-1.065264456E-3,6.498113275E-2
1.239805863E0,3.195793368E-3,-5.326322280E-4,6.817692518E-2
1.241805941E0,6.391586736E-3,1.597896684E-3,7.190535218E-2
1.243805980E0,4.261057824E-3,3.728425596E-3,7.297061384E-2
1.245806839E0,3.195793368E-3,5.326322280E-3,7.776430249E-2
1.247808792E0,3.195793368E-3,8.522115648E-3,8.042746782E-2
1.249809886E0,6.391586736E-3,9.587380104E-3,8.309062570E-2
1.251810863E0,4.261057824E-3,9.054748341E-3,8.788431436E-2
1.253812464E0,6.391586736E-3,8.522115648E-3,9.054747969E-2
1.255814027E0,4.793690052E-3,6.391586736E-3,9.427590668E-2
1.257815472E0,5.326322280E-3,6.924218964E-3,9.693906456E-2
1.259816878E0,4.261057824E-3,5.326322280E-3,9.800432622E-2
1.261817660E0,4.793690052E-3,3.728425596E-3,9.960222989E-2
1.263819222E0,5.326322280E-3,0.000000000E0,1.001348570E-1
1.265820433E0,3.728425596E-3,-1.597896684E-3,1.001348570E-1
1.267821644E0,3.195793368E-3,-2.130528912E-3,1.001348570E-1
1.269822621E0,2.663161140E-3,-3.195793368E-3,9.960222989E-2
1.271823480E0,3.195793368E-3,-1.597896684E-3,9.960222989E-2
1.273824417E0,2.663161140E-3,-3.195793368E-3,1.006674916E-1
1.275824808E0,4.261057824E-3,-5.858954508E-3,1.017327532E-1
1.277825667E0,3.195793368E-3,-2.663161140E-3,1.033306494E-1
1.279826644E0,3.728425596E-3,-1.597896684E-3,1.059938148E-1
1.281827894E0,3.195793368E-3,3.728425596E-3,1.075917110E-1
1.283828871E0,3.728425596E-3,2.663161140E-3,1.086569726E-1
1.285829691E0,4.793690052E-3,5.326322280E-3,1.118527651E-1
1.287830863E0,4.261057824E-3,5.858954508E-3,1.134506613E-1
1.289832425E0,2.130528912E-3,7.456851192E-3,1.134506613E-1
1.291834066E0,4.261057824E-3,7.989482954E-3,1.145159304E-1
1.293835550E0,5.858954508E-3,8.522115648E-3,1.145159304E-1
1.295836683E0,6.924218964E-3,9.054748341E-3,1.150485575E-1
1.297838011E0,5.858954508E-3,9.587380104E-3,1.118527651E-1
1.299838949E0,5.858954508E-3,9.054748341E-3,1.129180342E-1
1.301839886E0,6.391586736E-3,8.522115648E-3,1.102548689E-1
1.303840941E0,4.793690052E-3,4.793690052E-3,1.097222418E-1
1.305842464E0,2.663161140E-3,6.391586736E-3,1.075917110E-1
1.307845121E0,3.728425596E-3,4.261057824E-3,1.049285457E-1
1.309847582E0,3.728425596E-3,5.858954508E-3,1.033306494E-1
1.311849730E0,2.663161140E-3,3.195793368E-3,1.022653878E-1
1.313851761E0,2.130528912E-3,3.728425596E-3,1.006674916E-1
1.315853792E0,3.195793368E-3,4.793690052E-3,9.906959534E-2
1.317855355E0,3.728425596E-3,6.391586736E-3,1.001348570E-1
1.319857191E0,3.728425596E-3,6.924218964E-3,1.006674916E-1
1.321859183E0,3.728425596E-3,7.456851192E-3,1.033306494E-1
1.323861136E0,3.195793368E-3,8.522115648E-3,1.070590764E-1
1.325863050E0,5.326322280E-3,8.522115648E-3,1.091896072E-1
1.327864417E0,3.195793368E-3,8.522115648E-3,1.118527651E-1
1.329866292E0,2.130528912E-3,9.054748341E-3,1.129180342E-1
1.331867503E0,4.261057824E-3,7.989482954E-3,1.187769845E-1
1.333869535E0,6.391586736E-3,9.054748341E-3,1.251685768E-1
1.335870785E0,3.195793368E-3,7.456851192E-3,1.294296384E-1
1.337872464E0,2.663161140E-3,3.195793368E-3,1.315601617E-1
1.339873949E0,2.663161140E-3,1.065264456E-3,1.363538504E-1
1.341875238E0,1.597896684E-3,-1.065264456E-3,1.395496428E-1
1.343877386E0,1.597896684E-3,-3.728425596E-3,1.400822699E-1
1.345879144E0,1.065264456E-3,-7.456851192E-3,1.438107044E-1
1.347881449E0,0.000000000E0,-1.012001187E-2,1.459412277E-1
1.349882503E0,1.065264456E-3,-1.171790902E-2,1.480717659E-1
1.351884613E0,1.597896684E-3,-1.384843793E-2,1.496696621E-1
1.353886019E0,2.130528912E-3,-1.331580617E-2,1.486043930E-1
1.355887621E0,0.000000000E0,-1.757686399E-2,1.496696621E-1
1.357889339E0,1.065264456E-3,-1.225054078E-2,1.507349163E-1
1.359890355E0,2.130528912E-3,-1.331580617E-2,1.523328125E-1
1.361891449E0,1.065264456E-3,-1.331580617E-2,1.533980817E-1
1.363892933E0,2.663161140E-3,-8.522115648E-3,1.528654546E-1
1.365894847E0,2.130528912E-3,-9.054748341E-3,1.523328125E-1
1.367896878E0,2.663161140E-3,-5.858954508E-3,1.507349163E-1
1.369898480E0,1.065264456E-3,-1.597896684E-3,1.502022892E-1
1.371901019E0,3.728425596E-3,-1.065264456E-3,1.470064968E-1
1.373902230E0,4.261057824E-3,-5.326322280E-4,1.470064968E-1
1.375903324E0,3.195793368E-3,5.326322280E-4,1.454086006E-1
1.377904808E0,3.728425596E-3,2.130528912E-3,1.432780623E-1
1.379906488E0,2.130528912E-3,4.793690052E-3,1.422128081E-1
1.381907972E0,3.728425596E-3,5.326322280E-3,1.406149119E-1
1.383910082E0,4.261057824E-3,9.587380104E-3,1.374191195E-1
1.385912503E0,4.793690052E-3,9.587380104E-3,1.379517466E-1
1.387914457E0,6.924218964E-3,1.065264456E-2,1.358212233E-1
1.389916410E0,4.261057824E-3,1.384843793E-2,1.358212233E-1
1.391918597E0,7.989482954E-3,1.438106969E-2,1.368864775E-1
1.393920199E0,7.989482954E-3,1.597896591E-2,1.358212233E-1
1.395922035E0,5.326322280E-3,1.597896591E-2,1.368864775E-1
1.397923558E0,5.858954508E-3,1.864212751E-2,1.363538504E-1
1.399925707E0,6.391586736E-3,2.130528912E-2,1.358212233E-1
1.401928167E0,7.989482954E-3,2.024002373E-2,1.347559541E-1
1.403929613E0,6.391586736E-3,2.396845073E-2,1.379517466E-1
1.405931566E0,5.858954508E-3,2.503371425E-2,1.406149119E-1
1.407933167E0,7.456851192E-3,2.556634694E-2,1.438107044E-1
1.409935550E0,6.924218964E-3,2.290318534E-2,1.480717659E-1
1.411937816E0,7.456851192E-3,2.237055451E-2,1.523328125E-1
1.413939339E0,4.793690052E-3,1.917476021E-2,1.549959779E-1
1.415940628E0,7.456851192E-3,1.544633508E-2,1.581917703E-1
1.417941371E0,5.858954508E-3,1.225054078E-2,1.592570394E-1
1.419942582E0,3.195793368E-3,5.858954508E-3,1.613875628E-1
1.421943753E0,1.065264456E-3,1.065264456E-3,1.624528319E-1
1.423944339E0,2.663161140E-3,-6.391586736E-3,1.603222936E-1
1.425945785E0,-1.065264456E-3,-1.065264456E-2,1.587243974E-1
1.427947347E0,5.326322280E-4,-1.331580617E-2,1.560612470E-1
1.429948792E0,0.000000000E0,-1.810949668E-2,1.507349163E-1
1.431949886E0,-5.326322280E-4,-2.077265643E-2,1.475391239E-1
1.433951761E0,0.000000000E0,-2.024002373E-2,1.464738697E-1
1.435953207E0,2.130528912E-3,-1.864212751E-2,1.422128081E-1
1.437955589E0,1.065264456E-3,-1.757686399E-2,1.395496428E-1
1.439957972E0,-5.326322280E-4,-1.171790902E-2,1.400822699E-1
1.441959457E0,5.326322280E-4,-6.924218964E-3,1.374191195E-1
1.443961410E0,2.130528912E-3,0.000000000E0,1.368864775E-1
1.445962699E0,1.065264456E-3,2.663161140E-3,1.363538504E-1
1.447964496E0,3.195793368E-3,2.663161140E-3,1.363538504E-1
1.449965433E0,1.065264456E-3,4.793690052E-3,1.352885813E-1
1.451966214E0,3.728425596E-3,4.793690052E-3,1.326254308E-1
1.453966722E0,3.195793368E-3,5.326322280E-3,1.304948926E-1
1.455967347E0,3.728425596E-3,5.326322280E-3,1.272991002E-1
1.457967074E0,5.326322280E-4,3.728425596E-3,1.251685768E-1
1.459967621E0,3.195793368E-3,2.663161140E-3,1.225054115E-1
1.461967582E0,1.597896684E-3,1.597896684E-3,1.235706806E-1
1.463967347E0,-1.065264456E-3,-5.326322280E-4,1.235706806E-1
1.465967972E0,1.597896684E-3,0.000000000E0,1.267664731E-1
1.467969652E0,-1.597896684E-3,-1.597896684E-3,1.278317273E-1
1.469970980E0,-5.326322280E-4,-2.663161140E-3,1.283643693E-1
1.471971800E0,1.065264456E-3,-4.793690052E-3,1.304948926E-1
1.473971214E0,0.000000000E0,-8.522115648E-3,1.283643693E-1
1.475970511E0,5.326322280E-4,-5.858954508E-3,1.288969964E-1
1.477970785E0,-5.326322280E-4,-7.989482954E-3,1.283643693E-1
1.479971292E0,-5.326322280E-4,-7.989482954E-3,1.235706806E-1
1.481971761E0,-2.130528912E-3,-7.456851192E-3,1.203748807E-1
1.483972230E0,0.000000000E0,-7.989482954E-3,1.145159304E-1
1.485972855E0,5.326322280E-4,-5.326322280E-3,1.102548689E-1
1.487973167E0,0.000000000E0,-4.261057824E-3,1.022653878E-1
1.489973714E0,2.130528912E-3,-1.597896684E-3,9.693906456E-2
1.491973832E0,3.728425596E-3,2.130528912E-3,8.894958347E-2
1.493974574E0,2.130528912E-3,7.456851192E-3,8.415589482E-2
1.495976292E0,3.728425596E-3,9.054748341E-3,7.829693705E-2
1.497977230E0,2.663161140E-3,1.118527725E-2,7.243798673E-2
1.499977855E0,3.728425596E-3,1.438106969E-2,6.870955974E-2
1.501978324E0,4.793690052E-3,1.597896591E-2,6.498113275E-2
1.503980238E0,3.195793368E-3,1.757686399E-2,6.125270575E-2
1.505982582E0,3.195793368E-3,1.597896591E-2,5.858954415E-2
1.507984574E0,3.728425596E-3,1.544633508E-2,5.592638254E-2
1.509985550E0,3.195793368E-3,1.438106969E-2,5.166532472E-2
1.511986644E0,3.728425596E-3,1.225054078E-2,5.273059011E-2
1.513987542E0,3.728425596E-3,1.065264456E-2,5.219795927E-2
1.515988441E0,3.728425596E-3,6.391586736E-3,5.060006306E-2
1.517989691E0,3.728425596E-3,5.326322280E-4,5.219795927E-2
1.519990824E0,1.597896684E-3,-2.663161140E-3,5.113269389E-2
1.521992816E0,1.597896684E-3,-7.989482954E-3,5.166532472E-2
1.523993910E0,-1.065264456E-3,-1.331580617E-2,5.006742850E-2
1.525994691E0,-1.065264456E-3,-1.704423130E-2,5.379585549E-2
1.527995277E0,-3.195793368E-3,-1.864212751E-2,5.219795927E-2
1.529996371E0,-2.663161140E-3,-2.183792181E-2,5.699164793E-2
1.531997660E0,-2.130528912E-3,-2.183792181E-2,5.965480953E-2
1.533998246E0,-1.065264456E-3,-2.130528912E-2,6.072007492E-2
1.535999144E0,5.326322280E-4,-1.810949668E-2,6.604639441E-2
1.538000160E0,-2.130528912E-3,-1.597896591E-2,6.711166352E-2
1.540001605E0,-1.065264456E-3,-1.278317347E-2,6.711166352E-2
1.542003089E0,-5.326322280E-4,-1.012001187E-2,6.924218684E-2
1.544004691E0,0.000000000E0,-6.924218964E-3,7.137271762E-2
1.546006175E0,1.065264456E-3,-2.130528912E-3,7.084008306E-2
1.548007230E0,1.065264456E-3,-5.326322280E-4,6.977482140E-2
1.550008753E0,3.728425596E-3,2.130528912E-3,6.977482140E-2
1.552009613E0,3.195793368E-3,2.663161140E-3,6.977482140E-2
1.554010472E0,3.728425596E-3,3.728425596E-3,6.817692518E-2
1.556010746E0,3.728425596E-3,3.728425596E-3,6.711166352E-2
1.558011800E0,1.065264456E-3,5.858954508E-3,6.604639441E-2
1.560012425E0,0.000000000E0,5.326322280E-3,6.498113275E-2
1.562013597E0,4.261057824E-3,7.989482954E-3,6.764429063E-2
1.564013871E0,2.130528912E-3,4.261057824E-3,6.764429063E-2
1.566015042E0,2.130528912E-3,5.326322280E-3,6.870955974E-2
1.568015941E0,4.793690052E-3,5.326322280E-3,6.764429063E-2
1.570016996E0,3.195793368E-3,3.195793368E-3,6.817692518E-2
1.572017777E0,3.195793368E-3,-5.326322280E-4,6.817692518E-2
1.574019066E0,1.065264456E-3,-1.065264456E-3,6.817692518E-2
1.576019886E0,1.065264456E-3,-2.663161140E-3,6.498113275E-2
1.578019613E0,2.130528912E-3,-5.326322280E-4,6.498113275E-2
1.580018636E0,0.000000000E0,0.000000000E0,6.231797114E-2
1.582017425E0,3.728425596E-3,-5.326322280E-4,5.645901710E-2
1.584017152E0,3.195793368E-3,2.663161140E-3,5.592638254E-2
1.586016332E0,5.326322280E-4,1.597896684E-3,5.273059011E-2
1.588015472E0,3.195793368E-3,1.597896684E-3,4.900216311E-2
1.590016253E0,4.261057824E-3,2.663161140E-3,4.474110901E-2
1.592016800E0,1.065264456E-3,5.858954508E-3,4.048004746E-2
1.594017699E0,4.793690052E-3,3.728425596E-3,3.675162420E-2
1.596018089E0,2.663161140E-3,6.924218964E-3,3.142530099E-2
1.598019574E0,3.728425596E-3,5.326322280E-3,2.929477207E-2
1.600020589E0,3.195793368E-3,3.728425596E-3,2.237055451E-2
1.602021996E0,3.728425596E-3,2.663161140E-3,1.597896591E-2
1.604022933E0,1.065264456E-3,2.130528912E-3,1.065264456E-2
1.606023246E0,2.663161140E-3,2.663161140E-3,4.261057824E-3
1.608024222E0,2.663161140E-3,0.000000000E0,-1.597896684E-3
1.610025160E0,1.065264456E-3,2.663161140E-3,-8.522115648E-3
1.612025980E0,3.195793368E-3,1.065264456E-3,-1.384843793E-2
1.614026566E0,1.065264456E-3,-2.130528912E-3,-2.450108156E-2
1.616027582E0,-5.326322280E-4,-1.065264456E-3,-3.302319720E-2
1.618028480E0,2.130528912E-3,-5.326322280E-4,-4.154531285E-2
1.620029457E0,1.065264456E-3,-1.065264456E-3,-5.379585549E-2
1.622030394E0,2.130528912E-3,-5.326322280E-4,-6.604639441E-2
1.624030199E0,1.065264456E-3,0.000000000E0,-7.882957160E-2
1.626029964E0,1.065264456E-3,2.130528912E-3,-9.427590668E-2
1.628029964E0,2.130528912E-3,1.597896684E-3,-1.129180342E-1
1.630030550E0,1.065264456E-3,4.261057824E-3,-1.294296384E-1
1.632031527E0,1.597896684E-3,4.793690052E-3,-1.512675583E-1
1.634032425E0,1.065264456E-3,3.728425596E-3,-1.736381054E-1
1.636033753E0,5.326322280E-4,3.195793368E-3,-1.965412945E-1
1.638035277E0,-1.065264456E-3,1.065264456E-3,-2.199771106E-1
1.640036058E0,2.663161140E-3,4.793690052E-3,-2.455434501E-1
1.642037113E0,2.130528912E-3,5.326322280E-4,-2.705771625E-1
1.644039066E0,2.130528912E-3,0.000000000E0,-2.993393242E-1
1.646040550E0,2.130528912E-3,1.597896684E-3,-3.259709179E-1
1.648042113E0,0.000000000E0,1.597896684E-3,-3.536677957E-1
1.650043441E0,5.326322280E-4,6.924218964E-3,-4.005394280E-1
1.652044574E0,5.326322280E-4,1.012001187E-2,-4.319647253E-1
1.654045433E0,-1.597896684E-3,1.171790902E-2,-4.633900523E-1
1.656046683E0,-1.065264456E-3,1.331580617E-2,-4.974785149E-1
1.658047542E0,-5.326322280E-4,1.544633508E-2,-5.326322317E-1
1.660048988E0,1.065264456E-3,1.757686399E-2,-5.677859783E-1
1.662051097E0,0.000000000E0,1.384843793E-2,-6.087986231E-1
1.664052777E0,-1.065264456E-3,6.391586736E-3,-6.498113275E-1
1.666054847E0,-4.793690052E-3,-7.989482954E-3,-6.945524216E-1
1.668056449E0,-1.384843793E-2,-3.781688958E-2,-7.414240837E-1
1.670058167E0,-2.024002373E-2,-7.510114461E-2,-7.888283134E-1
1.672059300E0,-1.970739290E-2,-1.075917110E-1,-8.404936790E-1
1.674060511E0,-2.130528912E-2,-1.336906850E-1,-8.980179429E-1
1.676061605E0,-2.077265643E-2,-1.496696621E-1,-9.582054019E-1
1.678062542E0,-1.118527725E-2,-1.587243974E-1,-1.025317073E0
1.680063207E0,-1.065264456E-3,-1.518001854E-1,-1.097755075E0
1.682063519E0,-1.597896684E-3,-1.310275346E-1,-1.180312991E0
1.684063636E0,-1.012001187E-2,-9.693906456E-2,-1.270860553E0
1.686064105E0,-1.225054078E-2,-6.231797114E-2,-1.365136385E0
1.688064496E0,-7.989482954E-3,-2.982740477E-2,-1.468466997E0
1.690064691E0,-5.326322280E-3,0.000000000E0,-1.580319762E0
1.692065003E0,-4.261057824E-3,2.450108156E-2,-1.701759934E0
1.694065355E0,-8.522115648E-3,3.781688958E-2,-1.830124378E0
1.696065082E0,-6.391586736E-3,4.474110901E-2,-1.964880347E0
1.698065511E0,2.130528912E-3,4.846953228E-2,-2.099636316E0
1.700065902E0,7.989482954E-3,4.687163606E-2,-2.238120556E0
1.702066410E0,1.225054078E-2,4.207794741E-2,-2.376072407E0
1.704066644E0,1.331580617E-2,2.876213938E-2,-2.516687393E0
1.706067542E0,9.054748341E-3,1.225054078E-2,-2.653573751E0
1.708067699E0,2.130528912E-3,-5.326322280E-3,-2.782470703E0
1.710068246E0,-5.326322280E-3,-1.970739290E-2,-2.892193079E0
1.712068753E0,-1.012001187E-2,-3.142530099E-2,-2.993393183E0
1.714069847E0,-1.544633508E-2,-4.261057824E-2,-3.080744743E0
1.716070628E0,-1.704423130E-2,-5.273059011E-2,-3.151584864E0
1.718070980E0,-1.331580617E-2,-5.965480953E-2,-3.215500832E0
1.720071839E0,-1.278317347E-2,-6.391586363E-2,-3.268764019E0
1.722072191E0,-9.054748341E-3,-6.391586363E-2,-3.315635681E0
1.724073011E0,-7.456851192E-3,-5.858954415E-2,-3.352387190E0
1.726073441E0,-1.118527725E-2,-4.900216311E-2,-3.384877920E0
1.728073675E0,-1.651159860E-2,-3.728425503E-2,-3.410444260E0
1.730073832E0,-2.183792181E-2,-2.237055451E-2,-3.431216717E0
1.732073480E0,-2.290318534E-2,-3.195793368E-3,-3.448793650E0
1.734074222E0,-2.024002373E-2,1.065264456E-2,-3.461044312E0
1.736074339E0,-1.704423130E-2,2.663161233E-2,-3.468501091E0
1.738074417E0,-1.544633508E-2,3.355583176E-2,-3.470631599E0
1.740074808E0,-1.331580617E-2,3.994741663E-2,-3.466903210E0
1.742075824E0,-1.118527725E-2,3.994741663E-2,-3.458913803E0
1.744076410E0,-1.384843793E-2,4.261057824E-2,-3.444000006E0
1.746076917E0,-1.810949668E-2,4.474110901E-2,-3.422694683E0
1.748077972E0,-1.757686399E-2,4.261057824E-2,-3.391269445E0
1.750078402E0,-2.343581803E-2,3.728425503E-2,-3.357713461E0
1.752078363E0,-2.609897964E-2,3.089267015E-2,-3.313505173E0
1.754078558E0,-2.290318534E-2,1.917476021E-2,-3.262905121E0
1.756078832E0,-2.183792181E-2,5.326322280E-3,-3.202184916E0
1.758078636E0,-2.343581803E-2,-9.054748341E-3,-3.135605812E0
1.760078402E0,-2.450108156E-2,-1.864212751E-2,-3.058906794E0
1.762078832E0,-2.769687586E-2,-3.728425503E-2,-2.969957352E0
1.764079613E0,-3.355583176E-2,-4.527373984E-2,-2.867691994E0
1.766080277E0,-3.728425503E-2,-5.379585549E-2,-2.762230635E0
1.768080628E0,-3.781688958E-2,-5.805691332E-2,-2.647182226E0
1.770080824E0,-3.941478580E-2,-5.858954415E-2,-2.527339935E0
1.772080941E0,-3.941478580E-2,-5.805691332E-2,-2.402704000E0
1.774081214E0,-3.728425503E-2,-5.486112088E-2,-2.271143913E0
1.776081800E0,-3.888215125E-2,-4.846953228E-2,-2.139050961E0
1.778081527E0,-3.941478580E-2,-4.101268202E-2,-2.004295111E0
1.780082113E0,-3.994741663E-2,-3.302319720E-2,-1.867408633E0
1.782082503E0,-4.314320907E-2,-1.864212751E-2,-1.727858901E0
1.784082152E0,-4.154531285E-2,-5.326322280E-3,-1.582450390E0
1.786082074E0,-4.101268202E-2,9.054748341E-3,-1.441302776E0
1.788082777E0,-3.728425503E-2,1.810949668E-2,-1.294828892E0
1.790083285E0,-3.728425503E-2,2.929477207E-2,-1.151018262E0
1.792082855E0,-3.195793182E-2,3.515372798E-2,-1.001348615E0
1.794084144E0,-3.142530099E-2,3.355583176E-2,-8.559399843E-1
1.796084183E0,-2.929477207E-2,3.355583176E-2,-7.068029642E-1
1.798083910E0,-2.876213938E-2,2.982740477E-2,-5.560680628E-1
1.800083910E0,-2.716424316E-2,2.396845073E-2,-4.048005044E-1
1.802084027E0,-2.663161233E-2,2.130528912E-2,-2.519350350E-1
1.804084652E0,-2.503371425E-2,1.065264456E-2,-9.906959534E-2
1.806085941E0,-2.556634694E-2,6.391586736E-3,5.539375171E-2
1.808087425E0,-2.556634694E-2,-5.326322280E-4,2.087918371E-1
1.810088714E0,-2.716424316E-2,-6.391586736E-3,3.632551730E-1
1.812089496E0,-2.130528912E-2,-1.491370238E-2,5.123922229E-1
1.814090121E0,-1.970739290E-2,-1.864212751E-2,6.620618701E-1
1.816090042E0,-1.757686399E-2,-2.290318534E-2,8.074704409E-1
1.818090824E0,-1.118527725E-2,-1.917476021E-2,1.012533903E0
1.820091683E0,-1.118527725E-2,-1.384843793E-2,1.142496109E0
1.822092269E0,-6.391586736E-3,-7.989482954E-3,1.269262552E0
1.824093949E0,-3.728425596E-3,-2.130528912E-3,1.396029115E0
1.826095082E0,0.000000000E0,2.663161140E-3,1.521730304E0
1.828095628E0,3.728425596E-3,8.522115648E-3,1.649562001E0
1.830096800E0,9.054748341E-3,1.544633508E-2,1.773665309E0
1.832096839E0,1.171790902E-2,2.183792181E-2,1.898833871E0
1.834096917E0,1.384843793E-2,2.343581803E-2,2.019741297E0
1.836097269E0,2.183792181E-2,2.450108156E-2,2.137453079E0
1.838097972E0,2.503371425E-2,2.290318534E-2,2.255697489E0
1.840098714E0,2.876213938E-2,2.290318534E-2,2.370213509E0
1.842099183E0,3.195793182E-2,2.024002373E-2,2.479403019E0
1.844099652E0,3.515372798E-2,1.491370238E-2,2.585396767E0
1.846099261E0,3.781688958E-2,7.989482954E-3,2.686596870E0
1.848099339E0,4.101268202E-2,2.663161140E-3,2.781938076E0
1.850099457E0,4.633900523E-2,-3.728425596E-3,2.872485638E0
1.852099339E0,4.953479767E-2,-9.054748341E-3,2.954510927E0
1.854099730E0,5.273059011E-2,-1.597896591E-2,3.029079437E0
1.856100628E0,5.592638254E-2,-1.651159860E-2,3.098321676E0
1.858100941E0,5.699164793E-2,-1.384843793E-2,3.157976389E0
1.860101683E0,6.125270575E-2,-1.065264456E-2,3.211239815E0
1.862102269E0,6.391586363E-2,-1.065264456E-2,3.259709120E0
1.864102308E0,6.870955974E-2,-4.793690052E-3,3.301254511E0
1.866102386E0,7.243798673E-2,5.326322280E-4,3.336941004E0
1.868102074E0,7.563377917E-2,6.391586736E-3,3.363572598E0
1.870102230E0,7.936219871E-2,1.597896591E-2,3.389138937E0
1.872102777E0,8.362326026E-2,2.396845073E-2,3.407780886E0
1.874103675E0,8.841694891E-2,3.462109342E-2,3.420031548E0
1.876103714E0,9.001484513E-2,3.941478580E-2,3.429086208E0
1.878104339E0,9.161274135E-2,4.740426689E-2,3.431216717E0
1.880105199E0,9.161274135E-2,5.379585549E-2,3.428553581E0
1.882105199E0,9.427590668E-2,5.539375171E-2,3.417901039E0
1.884105316E0,9.693906456E-2,5.539375171E-2,3.404585123E0
1.886104535E0,9.906959534E-2,4.953479767E-2,3.385943174E0
1.888104378E0,1.022653878E-1,4.474110901E-2,3.358778715E0
1.890104652E0,1.054611802E-1,4.101268202E-2,3.326820850E0
1.892105160E0,1.049285457E-1,3.408846259E-2,3.286873579E0
1.894105394E0,1.027980223E-1,2.769687586E-2,3.241599798E0
1.896105785E0,1.006674916E-1,2.450108156E-2,3.188869238E0
1.898105941E0,9.853696078E-2,1.757686399E-2,3.128681660E0
1.900106449E0,1.001348570E-1,1.065264456E-2,3.062102795E0
1.902106839E0,9.640643001E-2,4.793690052E-3,2.988599539E0
1.904107660E0,9.693906456E-2,1.597896684E-3,2.907639265E0
1.906108792E0,9.267801046E-2,4.261057824E-3,2.819755077E0
1.908110628E0,9.001484513E-2,7.989482954E-3,2.723881245E0
1.910111917E0,9.001484513E-2,1.012001187E-2,2.623213768E0
1.912112582E0,9.001484513E-2,1.331580617E-2,2.516687393E0
1.914113167E0,9.108011425E-2,1.864212751E-2,2.404301882E0
1.916114261E0,8.735168725E-2,2.929477207E-2,2.286057472E0
1.918113949E0,8.149272949E-2,4.048004746E-2,2.161954165E0
1.920114300E0,8.042746782E-2,5.060006306E-2,2.035187721E0
1.922115160E0,7.776430249E-2,6.231797114E-2,1.904692888E0
1.924115433E0,7.723167539E-2,6.817692518E-2,1.768339038E0
1.926116019E0,7.350324839E-2,7.723167539E-2,1.629854560E0
1.928116214E0,7.297061384E-2,8.096009493E-2,1.489772320E0
1.930116527E0,7.084008306E-2,8.522115648E-2,1.347559571E0
1.932117230E0,6.604639441E-2,8.788431436E-2,1.205346704E0
1.934118167E0,6.285060197E-2,8.628641814E-2,1.057274938E0
1.936118792E0,5.539375171E-2,8.522115648E-2,9.102684855E-1
1.938118910E0,4.953479767E-2,7.776430249E-2,7.595335841E-1
1.940119730E0,4.633900523E-2,6.657902896E-2,6.082659960E-1
1.942119691E0,3.888215125E-2,5.699164793E-2,4.527373910E-1
1.944119613E0,3.249056637E-2,4.580637068E-2,2.993393242E-1
1.946119378E0,2.290318534E-2,3.302319720E-2,1.427454352E-1
1.948119613E0,1.278317347E-2,2.556634694E-2,-1.278317347E-2
1.950119808E0,6.924218964E-3,1.171790902E-2,-1.731054783E-1
1.952119222E0,0.000000000E0,3.195793368E-3,-3.302319944E-1
1.954119417E0,-7.989482954E-3,-1.012001187E-2,-4.868258536E-1
1.956119808E0,-1.278317347E-2,-1.544633508E-2,-6.471481323E-1
1.958121214E0,-2.237055451E-2,-2.396845073E-2,-8.069378138E-1
1.960121839E0,-2.876213938E-2,-2.343581803E-2,-9.598032832E-1
1.962123597E0,-3.462109342E-2,-2.396845073E-2,-1.115864515E0
1.964125042E0,-4.261057824E-2,-2.077265643E-2,-1.267664671E0
1.966125824E0,-5.060006306E-2,-1.544633508E-2,-1.417866945E0
1.968126449E0,-5.326322466E-2,-1.278317347E-2,-1.557949305E0
1.970126292E0,-5.592638254E-2,-9.054748341E-3,-1.689509392E0
1.972126996E0,-6.231797114E-2,-3.728425596E-3,-1.816275954E0
1.974127933E0,-6.338323653E-2,1.065264456E-3,-1.941977143E0
1.976128753E0,-6.711166352E-2,6.924218964E-3,-2.057558298E0
1.978129613E0,-7.243798673E-2,9.587380104E-3,-2.169943810E0
1.980130628E0,-7.882957160E-2,1.278317347E-2,-2.274339676E0
1.982131410E0,-8.202536404E-2,1.651159860E-2,-2.376072407E0
1.984132933E0,-8.468852192E-2,1.331580617E-2,-2.471413612E0
1.986133988E0,-9.214537591E-2,9.587380104E-3,-2.607767344E0
1.988134339E0,-9.906959534E-2,0.000000000E0,-2.692456007E0
1.990135121E0,-1.006674916E-1,-5.858954508E-3,-2.772883415E0
1.992135199E0,-1.038632840E-1,-1.384843793E-2,-2.850115061E0
1.994134925E0,-1.123853996E-1,-2.290318534E-2,-2.923085690E0
1.996134691E0,-1.166464612E-1,-2.822950855E-2,-2.992327929E0
1.998134847E0,-1.203748807E-1,-3.621899337E-2,-3.058374166E0
2.000134769E0,-1.272991002E-1,-4.261057824E-2,-3.121757507E0
2.002135199E0,-1.310275346E-1,-4.527373984E-2,-3.177151203E0
2.004135863E0,-1.342233270E-1,-5.166532472E-2,-3.232012272E0
2.006137425E0,-1.358212233E-1,-5.592638254E-2,-3.283144951E0
2.008137738E0,-1.379517466E-1,-6.018744037E-2,-3.327886105E0
2.010138011E0,-1.406149119E-1,-6.072007492E-2,-3.370496750E0
2.012138675E0,-1.384843737E-1,-5.912217870E-2,-3.407248259E0
2.014139261E0,-1.395496428E-1,-6.072007492E-2,-3.438141108E0
2.016140082E0,-1.395496428E-1,-5.486112088E-2,-3.464240074E0
2.018140550E0,-1.384843737E-1,-5.113269389E-2,-3.484480143E0
2.020141097E0,-1.347559541E-1,-4.527373984E-2,-3.498328447E0
2.022141058E0,-1.347559541E-1,-3.675162420E-2,-3.505252600E0
2.024141683E0,-1.315601617E-1,-3.036003746E-2,-3.503654718E0
2.026142855E0,-1.262338310E-1,-2.982740477E-2,-3.494600058E0
2.028144066E0,-1.230380461E-1,-2.876213938E-2,-3.476490498E0
2.030143910E0,-1.155811921E-1,-2.876213938E-2,-3.453054667E0
2.032144417E0,-1.129180342E-1,-3.142530099E-2,-3.420564175E0
2.034145082E0,-1.086569726E-1,-3.515372798E-2,-3.377420902E0
2.036146605E0,-1.070590764E-1,-4.101268202E-2,-3.324690342E0
2.038146917E0,-1.070590764E-1,-4.793690145E-2,-3.261839867E0
2.040147699E0,-1.033306494E-1,-5.539375171E-2,-3.185673237E0
2.042148089E0,-1.012001261E-1,-6.711166352E-2,-3.102050066E0
2.044149105E0,-9.800432622E-2,-7.723167539E-2,-3.009371996E0
2.046150589E0,-9.374327213E-2,-8.362326026E-2,-2.905508757E0
2.048151917E0,-9.374327213E-2,-8.788431436E-2,-2.792058229E0
2.050152738E0,-8.841694891E-2,-9.374327213E-2,-2.671683311E0
2.052153011E0,-8.362326026E-2,-9.321063757E-2,-2.540122986E0
2.054153519E0,-7.936219871E-2,-9.374327213E-2,-2.406965017E0
2.056153792E0,-7.723167539E-2,-8.894958347E-2,-2.269013405E0
2.058154535E0,-7.297061384E-2,-8.362326026E-2,-2.126800537E0
2.060154652E0,-6.604639441E-2,-7.350324839E-2,-1.984055042E0
2.062156136E0,-6.072007492E-2,-6.285060197E-2,-1.838113785E0
2.064157152E0,-5.432848632E-2,-5.326322466E-2,-1.692705274E0
2.066158558E0,-4.527373984E-2,-4.261057824E-2,-1.545166135E0
2.068158988E0,-3.408846259E-2,-2.982740477E-2,-1.398159623E0
2.070160121E0,-2.396845073E-2,-1.810949668E-2,-1.250620484E0
2.072161527E0,-1.810949668E-2,-9.054748341E-3,-1.107342362E0
2.074162503E0,-1.171790902E-2,-1.597896684E-3,-9.592706561E-1
2.076163089E0,-4.793690052E-3,5.326322280E-3,-8.149272799E-1
2.078164222E0,1.597896684E-3,6.924218964E-3,-6.668555737E-1
2.080164535E0,9.587380104E-3,7.456851192E-3,-5.230448246E-1
2.082165160E0,1.597896591E-2,6.391586736E-3,-3.760383427E-1
2.084166683E0,2.343581803E-2,4.261057824E-3,-2.300971150E-1
2.086167699E0,2.556634694E-2,2.130528912E-3,-8.522115648E-2
2.088169105E0,3.408846259E-2,0.000000000E0,6.125270575E-2
2.090170511E0,3.621899337E-2,-3.195793368E-3,2.029328793E-1
2.092171371E0,3.888215125E-2,-5.858954508E-3,3.488741219E-1
2.094172777E0,3.994741663E-2,-1.171790902E-2,4.910869002E-1
2.096174222E0,4.420847446E-2,-1.225054078E-2,6.311691999E-1
2.098174535E0,4.900216311E-2,-1.171790902E-2,7.712514400E-1
2.100175121E0,5.486112088E-2,-1.118527725E-2,9.092032313E-1
2.102176722E0,6.338323653E-2,-6.391586736E-3,1.042361259E0
2.104178285E0,6.764429063E-2,-3.195793368E-3,1.175519347E0
2.106179261E0,7.030745596E-2,5.858954508E-3,1.304948926E0
2.108180667E0,7.456851006E-2,1.438106969E-2,1.432248116E0
2.110181527E0,7.829693705E-2,2.450108156E-2,1.559547186E0
2.112182347E0,8.149272949E-2,2.982740477E-2,1.687378883E0
2.114183636E0,8.735168725E-2,3.834952042E-2,1.814677954E0
2.116185628E0,9.214537591E-2,4.367584363E-2,1.933454990E0
2.118187738E0,9.960222989E-2,5.060006306E-2,2.050634146E0
2.120189730E0,1.027980223E-1,5.699164793E-2,2.163019419E0
2.122191253E0,1.070590764E-1,5.912217870E-2,2.275404930E0
2.124192582E0,1.065264493E-1,6.231797114E-2,2.384594440E0
2.126192308E0,1.086569726E-1,6.231797114E-2,2.490588188E0
2.128191566E0,1.097222418E-1,6.125270575E-2,2.592321157E0
2.130191488E0,1.086569726E-1,5.858954415E-2,2.689260006E0
2.132190941E0,1.107875034E-1,5.379585549E-2,2.780872822E0
2.134191488E0,1.081243455E-1,5.060006306E-2,2.866626740E0
2.136192542E0,1.070590764E-1,4.527373984E-2,2.945456266E0
2.138193949E0,1.086569726E-1,4.207794741E-2,3.016296387E0
2.140194339E0,1.059938148E-1,3.888215125E-2,3.080212116E0
2.142194144E0,1.033306494E-1,3.675162420E-2,3.136138439E0
2.144193949E0,1.006674916E-1,3.941478580E-2,3.184607983E0
2.146193480E0,1.001348570E-1,4.048004746E-2,3.226153374E0
2.148193285E0,9.640643001E-2,4.261057824E-2,3.261307240E0
2.150193246E0,9.480853379E-2,4.633900523E-2,3.306580782E0
2.152193167E0,9.267801046E-2,5.060006306E-2,3.330549240E0
2.154194066E0,9.427590668E-2,5.326322466E-2,3.348658800E0
2.156194613E0,9.001484513E-2,6.072007492E-2,3.361974716E0
2.158195316E0,8.735168725E-2,6.231797114E-2,3.373159885E0
2.160196019E0,8.575379103E-2,6.604639441E-2,3.376888275E0
2.162196957E0,8.415589482E-2,6.924218684E-2,3.373159885E0
2.164198324E0,8.202536404E-2,6.498113275E-2,3.367300987E0
2.166199691E0,7.616640627E-2,6.231797114E-2,3.352919817E0
2.168200628E0,7.669904083E-2,5.752427876E-2,3.335343122E0
2.170201214E0,7.510114461E-2,5.379585549E-2,3.310309410E0
2.172202464E0,7.297061384E-2,4.687163606E-2,3.277818680E0
2.174203480E0,6.870955974E-2,4.101268202E-2,3.240001917E0
2.176204613E0,6.285060197E-2,3.302319720E-2,3.195260763E0
2.178206253E0,5.752427876E-2,2.290318534E-2,3.143595457E0
2.180207542E0,5.219795927E-2,1.438106969E-2,3.082342625E0
2.182209261E0,4.580637068E-2,4.793690052E-3,3.015231133E0
2.184211097E0,4.207794741E-2,-2.663161140E-3,2.940129995E0
2.186212074E0,3.941478580E-2,-9.587380104E-3,2.854908705E0
2.188213558E0,3.834952042E-2,-1.331580617E-2,2.765959263E0
2.190214808E0,3.621899337E-2,-1.331580617E-2,2.672748566E0
2.192215824E0,3.142530099E-2,-1.118527725E-2,2.566222191E0
2.194217347E0,2.716424316E-2,-7.456851192E-3,2.460228205E0
2.196218675E0,2.183792181E-2,0.000000000E0,2.344647169E0
2.198219417E0,1.704423130E-2,9.587380104E-3,2.223206997E0
2.200220160E0,1.384843793E-2,1.384843793E-2,2.100701571E0
2.202221136E0,1.065264456E-2,2.130528912E-2,1.973402381E0
2.204221527E0,8.522115648E-3,2.396845073E-2,1.845038056E0
2.206221761E0,9.587380104E-3,2.822950855E-2,1.712412596E0
2.208222894E0,6.924218964E-3,3.302319720E-2,1.576058745E0
2.210224457E0,7.456851192E-3,3.408846259E-2,1.435443878E0
2.212225550E0,4.261057824E-3,3.568635881E-2,1.294828892E0
2.214227113E0,1.597896684E-3,3.142530099E-2,1.149420381E0
2.216229066E0,-1.065264456E-3,2.663161233E-2,1.002946496E0
2.218229730E0,-3.728425596E-3,1.970739290E-2,8.548747301E-1
2.220230199E0,-5.858954508E-3,9.054748341E-3,7.046724558E-1
2.222229964E0,-9.054748341E-3,5.326322280E-4,5.550028086E-1
2.224230863E0,-1.278317347E-2,-1.118527725E-2,4.026699662E-1
2.226232230E0,-1.597896591E-2,-2.290318534E-2,2.524676621E-1
2.228233167E0,-1.970739290E-2,-2.982740477E-2,9.906959534E-2
2.230234339E0,-2.343581803E-2,-4.207794741E-2,-5.326322466E-2
2.232234886E0,-2.769687586E-2,-5.006742850E-2,-2.045307755E-1
2.234235355E0,-2.876213938E-2,-5.486112088E-2,-3.573962152E-1
2.236235746E0,-2.822950855E-2,-6.072007492E-2,-5.054680109E-1
2.238236644E0,-3.089267015E-2,-6.498113275E-2,-6.588660479E-1
2.240238128E0,-3.142530099E-2,-6.444849819E-2,-8.090683818E-1
2.242240121E0,-2.982740477E-2,-6.125270575E-2,-9.582054019E-1
2.244241566E0,-3.408846259E-2,-5.699164793E-2,-1.104146600E0
2.246242191E0,-3.249056637E-2,-4.846953228E-2,-1.248489976E0
2.248242542E0,-3.302319720E-2,-3.888215125E-2,-1.392300606E0
2.250242972E0,-3.302319720E-2,-3.036003746E-2,-1.524393439E0
2.252242777E0,-3.302319720E-2,-2.343581803E-2,-1.653823018E0
2.254243011E0,-3.249056637E-2,-1.810949668E-2,-1.780589581E0
2.256244144E0,-3.195793182E-2,-1.225054078E-2,-1.900431752E0
2.258244925E0,-2.663161233E-2,-1.118527725E-2,-2.016545534E0
2.260245121E0,-2.716424316E-2,-9.054748341E-3,-2.128931046E0
2.262244769E0,-2.503371425E-2,-9.587380104E-3,-2.231729031E0
2.264245238E0,-2.556634694E-2,-8.522115648E-3,-2.333994389E0
2.266245707E0,-2.663161233E-2,-1.438106969E-2,-2.429868221E0
2.268245355E0,-2.343581803E-2,-2.237055451E-2,-2.520948410E0
2.270245355E0,-2.396845073E-2,-2.876213938E-2,-2.605636835E0
2.272245628E0,-2.077265643E-2,-3.568635881E-2,-2.687662125E0
2.274245160E0,-2.237055451E-2,-5.006742850E-2,-2.766491890E0
2.276244886E0,-2.343581803E-2,-5.699164793E-2,-2.838397026E0
2.278245238E0,-2.183792181E-2,-6.657902896E-2,-2.908171892E0
2.280245394E0,-2.343581803E-2,-6.870955974E-2,-2.973685741E0
2.282245550E0,-2.343581803E-2,-7.084008306E-2,-3.032275200E0
2.284245980E0,-2.450108156E-2,-7.084008306E-2,-3.088734388E0
2.286246097E0,-2.237055451E-2,-6.764429063E-2,-3.141997576E0
2.288245902E0,-2.237055451E-2,-6.444849819E-2,-3.187803984E0
2.290246214E0,-1.917476021E-2,-5.699164793E-2,-3.231479645E0
2.292246097E0,-1.917476021E-2,-5.166532472E-2,-3.267166138E0
2.294246566E0,-1.491370238E-2,-4.207794741E-2,-3.299124002E0
2.296246488E0,-1.491370238E-2,-3.195793182E-2,-3.325222969E0
2.298246644E0,-1.438106969E-2,-1.810949668E-2,-3.344397783E0
2.300246839E0,-1.171790902E-2,-6.391586736E-3,-3.360909462E0
2.302248128E0,-1.171790902E-2,6.924218964E-3,-3.368898869E0
2.304249457E0,-1.118527725E-2,1.491370238E-2,-3.370496750E0
2.306251097E0,-5.858954508E-3,2.343581803E-2,-3.369431496E0
2.308252269E0,-3.728425596E-3,2.822950855E-2,-3.363039970E0
2.310253402E0,0.000000000E0,2.822950855E-2,-3.349724054E0
2.312254144E0,1.065264456E-3,2.343581803E-2,-3.330016613E0
2.314254808E0,1.065264456E-3,2.024002373E-2,-3.304982901E0
2.316255355E0,-5.326322280E-4,8.522115648E-3,-3.253850222E0
2.318256605E0,-1.065264456E-3,0.000000000E0,-3.208043814E0
2.320257464E0,-2.130528912E-3,-9.587380104E-3,-3.158509016E0
2.322257699E0,-2.663161140E-3,-2.077265643E-2,-3.098321676E0
2.324258207E0,-3.195793368E-3,-3.302319720E-2,-3.031742573E0
2.326259066E0,-2.130528912E-3,-4.793690145E-2,-2.955576181E0
2.328260355E0,-1.597896684E-3,-6.018744037E-2,-2.871953011E0
2.330260160E0,-1.597896684E-3,-7.190535218E-2,-2.778742313E0
2.332260199E0,-2.130528912E-3,-7.882957160E-2,-2.678074837E0
2.334260511E0,-2.663161140E-3,-8.362326026E-2,-2.566754818E0
2.336261449E0,-9.587380104E-3,-8.522115648E-2,-2.446912527E0
2.338262386E0,-1.171790902E-2,-8.202536404E-2,-2.321743965E0
2.340262464E0,-1.118527725E-2,-7.350324839E-2,-2.189118385E0
2.342263050E0,-1.171790902E-2,-6.178534031E-2,-2.052764654E0
2.344263519E0,-7.989482954E-3,-4.846953228E-2,-1.912682295E0
2.346264496E0,-7.989482954E-3,-3.302319720E-2,-1.767806411E0
2.348265277E0,-5.858954508E-3,-2.024002373E-2,-1.621865153E0
2.350266683E0,-1.597896684E-3,-6.391586736E-3,-1.473260760E0
2.352267972E0,-4.793690052E-3,6.924218964E-3,-1.321993232E0
2.354269378E0,-3.728425596E-3,2.396845073E-2,-1.165399313E0
2.356270003E0,-4.793690052E-3,3.834952042E-2,-1.011468649E0
2.358271488E0,-5.326322280E-3,4.900216311E-2,-8.564726114E-1
2.360272816E0,-5.858954508E-3,5.539375171E-2,-7.020092607E-1
2.362273636E0,-5.326322280E-3,5.486112088E-2,-5.475459099E-1
2.364274496E0,-1.065264456E-3,4.900216311E-2,-3.930825889E-1
2.366275550E0,-2.663161140E-3,4.420847446E-2,-2.439455539E-1
2.368276761E0,-5.326322280E-4,3.462109342E-2,-9.427590668E-2
2.370278675E0,-1.597896684E-3,2.609897964E-2,5.379585549E-2
2.372280628E0,-3.728425596E-3,1.438106969E-2,2.013349831E-1
2.374282113E0,-8.522115648E-3,4.793690052E-3,3.456783295E-1
2.376283792E0,-1.012001187E-2,-2.130528912E-3,4.857605994E-1
2.378285472E0,-1.225054078E-2,-1.278317347E-2,6.263754964E-1
2.380286488E0,-1.065264456E-2,-1.864212751E-2,7.627293468E-1
2.382287230E0,-9.587380104E-3,-2.290318534E-2,8.937568665E-1
2.384288089E0,-6.391586736E-3,-2.503371425E-2,1.027447581E0
2.386289574E0,-3.195793368E-3,-2.130528912E-2,1.155811906E0
2.388291214E0,-4.793690052E-3,-1.704423130E-2,1.285241604E0
2.390292152E0,-3.195793368E-3,-5.858954508E-3,1.412008047E0
2.392293128E0,-2.130528912E-3,5.858954508E-3,1.539839745E0
2.394294144E0,-4.261057824E-3,1.810949668E-2,1.662345171E0
2.396295003E0,-2.130528912E-3,2.929477207E-2,1.784317970E0
2.398295511E0,0.000000000E0,3.834952042E-2,1.901497006E0
2.400296761E0,3.728425596E-3,4.527373984E-2,2.015480280E0
2.402297621E0,7.989482954E-3,4.633900523E-2,2.125735283E0
2.404297933E0,1.065264456E-2,4.900216311E-2,2.236522675E0
2.406298207E0,1.331580617E-2,5.006742850E-2,2.341451168E0
2.408298363E0,1.171790902E-2,4.633900523E-2,2.446379900E0
2.410298753E0,1.278317347E-2,4.261057824E-2,2.547047377E0
2.412299144E0,9.054748341E-3,3.089267015E-2,2.641323328E0
2.414299691E0,1.065264456E-2,2.077265643E-2,2.728142262E0
2.416299925E0,1.012001187E-2,7.456851192E-3,2.814428806E0
2.418300472E0,1.118527725E-2,-3.195793368E-3,2.890595198E0
2.420301410E0,1.491370238E-2,-1.651159860E-2,2.959837198E0
2.422302855E0,1.597896591E-2,-2.876213938E-2,3.024285793E0
2.424304300E0,1.597896591E-2,-3.675162420E-2,3.078081608E0
2.426305042E0,1.864212751E-2,-3.994741663E-2,3.127616405E0
2.428306175E0,1.757686399E-2,-4.154531285E-2,3.169694424E0
2.430307074E0,2.077265643E-2,-4.207794741E-2,3.204315424E0
2.432308050E0,2.130528912E-2,-3.408846259E-2,3.235740900E0
2.434309457E0,2.663161233E-2,-2.609897964E-2,3.262372494E0
2.436310746E0,2.982740477E-2,-1.491370238E-2,3.283677578E0
2.438312152E0,3.036003746E-2,-7.989482954E-3,3.300189257E0
2.440313519E0,3.941478580E-2,6.391586736E-3,3.314570427E0
2.442314730E0,3.994741663E-2,1.917476021E-2,3.319364071E0
2.444315785E0,4.101268202E-2,3.195793182E-2,3.320429325E0
2.446316917E0,4.314320907E-2,4.420847446E-2,3.319364071E0
2.448317230E0,4.687163606E-2,5.326322466E-2,3.311374664E0
2.450317308E0,4.687163606E-2,6.018744037E-2,3.298058748E0
2.452318128E0,5.326322466E-2,6.018744037E-2,3.281014442E0
2.454318011E0,5.219795927E-2,5.912217870E-2,3.255448103E0
2.456318246E0,5.592638254E-2,5.486112088E-2,3.227218628E0
2.458317621E0,5.699164793E-2,4.314320907E-2,3.188869238E0
2.460316371E0,5.592638254E-2,3.302319720E-2,3.145725965E0
2.462315433E0,5.699164793E-2,1.970739290E-2,3.094593287E0
2.464314886E0,5.486112088E-2,7.989482954E-3,3.035470963E0
2.466314417E0,5.326322466E-2,-1.118527725E-2,2.966761589E0
2.468314417E0,5.060006306E-2,-2.396845073E-2,2.891127825E0
2.470315199E0,4.846953228E-2,-3.675162420E-2,2.809634924E0
2.472316136E0,4.846953228E-2,-4.846953228E-2,2.720152855E0
2.474316292E0,4.953479767E-2,-5.486112088E-2,2.624279022E0
2.476317074E0,4.740426689E-2,-5.699164793E-2,2.522013664E0
2.478316761E0,4.793690145E-2,-5.486112088E-2,2.412823915E0
2.480317347E0,5.113269389E-2,-4.687163606E-2,2.240251064E0
2.482318519E0,5.326322466E-2,-3.568635881E-2,2.118810892E0
2.484319261E0,5.113269389E-2,-1.810949668E-2,1.993642449E0
2.486320082E0,5.273059011E-2,0.000000000E0,1.862614870E0
2.488320746E0,5.060006306E-2,1.864212751E-2,1.732120037E0
2.490321058E0,5.326322466E-2,3.781688958E-2,1.598961949E0
2.492321371E0,5.752427876E-2,5.539375171E-2,1.462608099E0
2.494321332E0,5.539375171E-2,7.403588295E-2,1.323591113E0
2.496321722E0,5.486112088E-2,8.735168725E-2,1.184574127E0
2.498321800E0,5.379585549E-2,9.587380290E-2,1.042893887E0
2.500322503E0,5.645901710E-2,1.006674916E-1,8.942894936E-1
2.502322542E0,5.219795927E-2,9.800432622E-2,7.499461770E-1
2.504322777E0,5.219795927E-2,9.374327213E-2,6.018744111E-1
2.506322425E0,4.261057824E-2,8.575379103E-2,4.500742257E-1
2.508321917E0,4.048004746E-2,7.350324839E-2,3.004045784E-1
2.510321761E0,3.089267015E-2,5.752427876E-2,1.443433315E-1
2.512322347E0,2.556634694E-2,3.994741663E-2,-1.118527725E-2
2.514323402E0,1.757686399E-2,1.810949668E-2,-1.651159972E-1
2.516323246E0,1.384843793E-2,-5.326322280E-4,-3.227751255E-1
2.518324261E0,5.858954508E-3,-2.077265643E-2,-4.777711034E-1
2.520325042E0,4.261057824E-3,-3.515372798E-2,-6.317018270E-1
2.522325746E0,-6.391586736E-3,-4.633900523E-2,-7.845672965E-1
2.524326449E0,-1.118527725E-2,-5.113269389E-2,-9.363674521E-1
2.526326917E0,-1.757686399E-2,-5.699164793E-2,-1.087102413E0
2.528327933E0,-2.290318534E-2,-5.432848632E-2,-1.232510924E0
2.530328480E0,-2.343581803E-2,-5.006742850E-2,-1.367266893E0
2.532329105E0,-2.769687586E-2,-3.994741663E-2,-1.496163964E0
2.534329613E0,-2.929477207E-2,-2.663161233E-2,-1.620799899E0
2.536330863E0,-3.195793182E-2,-1.065264456E-2,-1.739576817E0
2.538331722E0,-3.515372798E-2,6.924218964E-3,-1.853560209E0
2.540333246E0,-3.781688958E-2,2.290318534E-2,-1.964880347E0
2.542335472E0,-3.941478580E-2,3.941478580E-2,-2.072472095E0
2.544337542E0,-4.207794741E-2,5.432848632E-2,-2.175802708E0
2.546338832E0,-4.367584363E-2,6.125270575E-2,-2.275937557E0
2.548339535E0,-4.633900523E-2,7.190535218E-2,-2.371811390E0
2.550340746E0,-4.900216311E-2,7.456851006E-2,-2.463956594E0
2.552342464E0,-5.379585549E-2,7.137271762E-2,-2.552373648E0
2.554343558E0,-5.699164793E-2,6.604639441E-2,-2.639192581E0
2.556344613E0,-6.338323653E-2,5.752427876E-2,-2.722283363E0
2.558345277E0,-7.030745596E-2,4.900216311E-2,-2.799515009E0
2.560345980E0,-7.723167539E-2,3.408846259E-2,-2.873018265E0
2.562346527E0,-8.468852192E-2,2.024002373E-2,-2.943858385E0
2.564348207E0,-9.214537591E-2,4.793690052E-3,-3.010437250E0
2.566349613E0,-9.587380290E-2,-1.278317347E-2,-3.071690083E0
2.568350511E0,-1.006674916E-1,-2.822950855E-2,-3.128149033E0
2.570351175E0,-1.033306494E-1,-4.101268202E-2,-3.176618576E0
2.572351488E0,-1.091896072E-1,-4.953479767E-2,-3.218696594E0
2.574351839E0,-1.139832959E-1,-5.432848632E-2,-3.259176493E0
2.576352660E0,-1.198422536E-1,-5.805691332E-2,-3.291134596E0
2.578353480E0,-1.219727769E-1,-5.912217870E-2,-3.316700935E0
2.580354222E0,-1.203748807E-1,-5.113269389E-2,-3.338006258E0
2.582355277E0,-1.225054115E-1,-4.633900523E-2,-3.351854563E0
2.584355902E0,-1.230380461E-1,-3.834952042E-2,-3.361442089E0
2.586356175E0,-1.209075153E-1,-2.556634694E-2,-3.363039970E0
2.588356214E0,-1.198422536E-1,-1.012001187E-2,-3.358246088E0
2.590357113E0,-1.177117229E-1,4.261057824E-3,-3.348126173E0
2.592358167E0,-1.139832959E-1,2.024002373E-2,-3.330549240E0
2.594359378E0,-1.113201380E-1,2.982740477E-2,-3.304450274E0
2.596361722E0,-1.075917110E-1,3.834952042E-2,-3.272492409E0
2.598362738E0,-1.049285457E-1,4.207794741E-2,-3.233610153E0
2.600363949E0,-1.017327532E-1,4.314320907E-2,-3.190467119E0
2.602365199E0,-1.027980223E-1,4.314320907E-2,-3.137736559E0
2.604365824E0,-1.022653878E-1,3.621899337E-2,-3.078081608E0
2.606366488E0,-1.033306494E-1,2.290318534E-2,-3.009904623E0
2.608366449E0,-1.038632840E-1,1.118527725E-2,-2.935868740E0
2.610367347E0,-1.017327532E-1,-7.456851192E-3,-2.849582434E0
2.612366839E0,-1.017327532E-1,-2.822950855E-2,-2.757969618E0
2.614366019E0,-9.960222989E-2,-4.687163606E-2,-2.659432650E0
2.616366878E0,-9.853696078E-2,-6.551376730E-2,-2.552906275E0
2.618368089E0,-9.534116834E-2,-7.882957160E-2,-2.438922882E0
2.620369925E0,-9.480853379E-2,-9.001484513E-2,-2.320678711E0
2.622371058E0,-9.321063757E-2,-9.800432622E-2,-2.194444895E0
2.624372074E0,-9.321063757E-2,-9.853696078E-2,-2.065015078E0
2.626372582E0,-8.841694891E-2,-9.853696078E-2,-1.931857109E0
2.628372894E0,-8.522115648E-2,-9.321063757E-2,-1.793905377E0
2.630373050E0,-7.829693705E-2,-8.575379103E-2,-1.654888391E0
2.632373480E0,-6.924218684E-2,-7.084008306E-2,-1.510545015E0
2.634373910E0,-5.912217870E-2,-5.432848632E-2,-1.366201639E0
2.636374652E0,-4.740426689E-2,-3.462109342E-2,-1.217597246E0
2.638374964E0,-4.154531285E-2,-1.864212751E-2,-1.071655989E0
2.640375707E0,-3.249056637E-2,2.130528912E-3,-9.193232059E-1
2.642376566E0,-2.609897964E-2,1.970739290E-2,-7.707188129E-1
2.644378089E0,-1.864212751E-2,3.568635881E-2,-5.432848930E-1
2.646379691E0,-1.065264456E-2,4.420847446E-2,-3.925499618E-1
2.648380238E0,-1.597896684E-3,4.633900523E-2,-2.487392575E-1
2.650381527E0,4.793690052E-3,4.633900523E-2,-9.853696078E-2
2.652383011E0,1.438106969E-2,3.994741663E-2,4.367584363E-2
2.654384027E0,1.757686399E-2,3.302319720E-2,1.869539171E-1
2.656385511E0,1.757686399E-2,2.450108156E-2,3.270362020E-1
2.658387425E0,2.237055451E-2,1.331580617E-2,4.639226794E-1
2.660389613E0,2.290318534E-2,5.326322280E-4,5.992112756E-1
2.662390785E0,2.609897964E-2,-9.587380104E-3,7.313040495E-1
2.664392230E0,2.929477207E-2,-2.237055451E-2,8.655273914E-1
2.666393714E0,3.728425503E-2,-3.249056637E-2,9.960222840E-1
2.668395277E0,4.527373984E-2,-3.888215125E-2,1.122788787E0
2.670396136E0,5.432848632E-2,-4.314320907E-2,1.252218366E0
2.672396683E0,5.858954415E-2,-4.261057824E-2,1.380050063E0
2.674397738E0,6.231797114E-2,-3.888215125E-2,1.505218625E0
2.676399339E0,6.817692518E-2,-2.982740477E-2,1.633583069E0
2.678400121E0,7.243798673E-2,-2.024002373E-2,1.753957868E0
2.680399496E0,7.989483327E-2,-5.858954508E-3,1.873800159E0
2.682399691E0,8.681905270E-2,9.054748341E-3,1.992044568E0
2.684400277E0,9.853696078E-2,2.343581803E-2,2.103364706E0
2.686401175E0,1.059938148E-1,3.675162420E-2,2.214684725E0
2.688402152E0,1.113201380E-1,5.060006306E-2,2.320678711E0
2.690403011E0,1.182443574E-1,6.178534031E-2,2.423476696E0
2.692403011E0,1.209075153E-1,7.350324839E-2,2.522546291E0
2.694403441E0,1.230380461E-1,7.882957160E-2,2.615756989E0
2.696403480E0,1.251685768E-1,8.255799860E-2,2.700978041E0
2.698404222E0,1.246359423E-1,8.042746782E-2,2.780340195E0
2.700404964E0,1.272991002E-1,8.042746782E-2,2.855973959E0
2.702405433E0,1.304948926E-1,7.350324839E-2,2.921487808E0
2.704405785E0,1.310275346E-1,6.285060197E-2,2.982740402E0
2.706406136E0,1.294296384E-1,5.699164793E-2,3.033340454E0
2.708407074E0,1.283643693E-1,4.527373984E-2,3.079146862E0
2.710407230E0,1.262338310E-1,3.675162420E-2,3.120692253E0
2.712408089E0,1.257012039E-1,3.142530099E-2,3.152117491E0
2.714408753E0,1.219727769E-1,2.503371425E-2,3.181412220E0
2.716409417E0,1.209075153E-1,1.917476021E-2,3.204848051E0
2.718410042E0,1.203748807E-1,1.810949668E-2,3.223490238E0
2.720410238E0,1.177117229E-1,1.757686399E-2,3.238404036E0
2.722410121E0,1.219727769E-1,1.917476021E-2,3.250654459E0
2.724409925E0,1.219727769E-1,2.290318534E-2,3.258111238E0
2.726410121E0,1.246359423E-1,3.195793182E-2,3.258643866E0
2.728410394E0,1.230380461E-1,3.888215125E-2,3.258111238E0
2.730410707E0,1.219727769E-1,4.580637068E-2,3.250121832E0
2.732411019E0,1.203748807E-1,5.486112088E-2,3.239469290E0
2.734411488E0,1.187769845E-1,6.391586363E-2,3.222424984E0
2.736411488E0,1.161138266E-1,7.350324839E-2,3.201119661E0
2.738412308E0,1.145159304E-1,7.882957160E-2,3.175020695E0
2.740413597E0,1.123853996E-1,8.202536404E-2,3.145193338E0
2.742414613E0,1.102548689E-1,8.362326026E-2,3.103647947E0
2.744415707E0,1.059938148E-1,7.989483327E-2,3.056776285E0
2.746416917E0,9.906959534E-2,7.510114461E-2,3.004578352E0
2.748418753E0,9.427590668E-2,6.870955974E-2,2.942793131E0
2.750419886E0,8.948221803E-2,6.125270575E-2,2.873550892E0
2.752420550E0,8.096009493E-2,5.006742850E-2,2.794188738E0
2.754421332E0,7.669904083E-2,3.834952042E-2,2.710565329E0
2.756421839E0,6.870955974E-2,2.663161233E-2,2.616289616E0
2.758423597E0,6.391586363E-2,1.704423130E-2,2.514556646E0
2.760424574E0,5.858954415E-2,6.391586736E-3,2.405899763E0
2.762425238E0,5.379585549E-2,4.261057824E-3,2.291916370E0
2.764426605E0,4.580637068E-2,-3.195793368E-3,2.173672199E0
2.766426371E0,4.207794741E-2,-2.663161140E-3,2.050101519E0
2.768426527E0,3.728425503E-2,-2.130528912E-3,1.920671821E0
2.770426566E0,3.195793182E-2,5.326322280E-4,1.788578987E0
2.772426449E0,2.663161233E-2,4.793690052E-3,1.652225137E0
2.774426410E0,2.396845073E-2,1.012001187E-2,1.511077642E0
2.776426527E0,2.130528912E-2,1.544633508E-2,1.367799520E0
2.778427347E0,1.597896591E-2,1.970739290E-2,1.223988891E0
2.780428636E0,1.757686399E-2,2.396845073E-2,1.078580260E0
2.782430003E0,1.384843793E-2,3.036003746E-2,9.299758673E-1
2.784431019E0,9.587380104E-3,3.355583176E-2,7.829693556E-1
2.786431214E0,5.326322280E-3,3.408846259E-2,6.322344542E-1
2.788431878E0,1.597896684E-3,3.462109342E-2,4.825648069E-1
2.790432191E0,-4.793690052E-3,3.249056637E-2,3.350256681E-1
2.792431917E0,-9.587380104E-3,2.822950855E-2,1.864212751E-1
2.794432308E0,-1.491370238E-2,2.077265643E-2,3.888215125E-2
2.796433089E0,-2.024002373E-2,1.012001187E-2,-1.107875034E-1
2.798434300E0,-2.503371425E-2,2.663161140E-3,-2.588592768E-1
2.800434886E0,-2.929477207E-2,-1.118527725E-2,-4.053331316E-1
2.802434417E0,-3.515372798E-2,-2.396845073E-2,-5.523396134E-1
2.804435042E0,-3.675162420E-2,-3.515372798E-2,-7.004113793E-1
2.806435746E0,-4.474110901E-2,-4.687163606E-2,-8.463526368E-1
2.808436175E0,-5.166532472E-2,-5.273059011E-2,-9.885654449E-1
2.810437503E0,-5.699164793E-2,-6.391586363E-2,-1.201618314E0
2.812438363E0,-5.912217870E-2,-6.604639441E-2,-1.339037418E0
2.814438792E0,-6.178534031E-2,-7.243798673E-2,-1.470064998E0
2.816438910E0,-6.338323653E-2,-7.403588295E-2,-1.593635678E0
2.818439144E0,-6.444849819E-2,-6.977482140E-2,-1.714010477E0
2.820438753E0,-6.285060197E-2,-6.977482140E-2,-1.831722260E0
2.822439496E0,-6.391586363E-2,-6.018744037E-2,-1.943042397E0
2.824440746E0,-6.231797114E-2,-5.326322466E-2,-2.049568892E0
2.826441371E0,-6.498113275E-2,-4.633900523E-2,-2.149703741E0
2.828441449E0,-6.338323653E-2,-4.207794741E-2,-2.247175455E0
2.830442191E0,-6.125270575E-2,-3.462109342E-2,-2.340918541E0
2.832443324E0,-6.231797114E-2,-3.142530099E-2,-2.429335594E0
2.834443871E0,-6.018744037E-2,-2.769687586E-2,-2.515089273E0
2.836443832E0,-5.752427876E-2,-2.716424316E-2,-2.596582174E0
2.838444378E0,-5.805691332E-2,-2.929477207E-2,-2.677009583E0
2.840444964E0,-5.752427876E-2,-3.036003746E-2,-2.753175974E0
2.842445785E0,-5.805691332E-2,-3.888215125E-2,-2.824016094E0
2.844446996E0,-5.965480953E-2,-4.154531285E-2,-2.891660452E0
2.846448402E0,-5.858954415E-2,-5.060006306E-2,-2.955576181E0
2.848449964E0,-6.018744037E-2,-5.912217870E-2,-3.014698505E0
2.850451800E0,-5.858954415E-2,-6.604639441E-2,-3.069026947E0
2.852453011E0,-5.699164793E-2,-7.350324839E-2,-3.118561745E0
2.854453050E0,-5.592638254E-2,-8.362326026E-2,-3.162770271E0
2.856454652E0,-5.592638254E-2,-8.468852192E-2,-3.198456526E0
2.858455589E0,-5.592638254E-2,-8.841694891E-2,-3.228816509E0
2.860457269E0,-5.645901710E-2,-8.841694891E-2,-3.253317595E0
2.862457894E0,-5.752427876E-2,-8.628641814E-2,-3.270894527E0
2.864457972E0,-5.326322466E-2,-8.468852192E-2,-3.281547070E0
2.866458675E0,-4.846953228E-2,-7.776430249E-2,-3.286873579E0
2.868459105E0,-4.740426689E-2,-7.084008306E-2,-3.287938833E0
2.870459378E0,-4.261057824E-2,-6.178534031E-2,-3.281547070E0
2.872458050E0,-3.675162420E-2,-5.219795927E-2,-3.271427155E0
2.874457933E0,-3.355583176E-2,-4.367584363E-2,-3.257045984E0
2.876458949E0,-2.769687586E-2,-3.249056637E-2,-3.236806154E0
2.878461097E0,-2.556634694E-2,-2.290318534E-2,-3.208576441E0
2.880463480E0,-2.343581803E-2,-1.651159860E-2,-3.178749084E0
2.882464769E0,-2.024002373E-2,-1.331580617E-2,-3.140399694E0
2.884465277E0,-1.864212751E-2,-1.118527725E-2,-3.091930151E0
2.886465316E0,-1.225054078E-2,-9.054748341E-3,-3.039732218E0
2.888465863E0,-9.587380104E-3,-1.171790902E-2,-2.981142521E0
2.890466019E0,-7.989482954E-3,-1.384843793E-2,-2.911900282E0
2.892466410E0,-5.326322280E-3,-2.343581803E-2,-2.838397026E0
2.894466332E0,-3.195793368E-3,-3.408846259E-2,-2.753175974E0
2.896466449E0,-2.663161140E-3,-4.633900523E-2,-2.658367395E0
2.898465941E0,-1.065264456E-3,-5.645901710E-2,-2.556634665E0
2.900465667E0,-2.130528912E-3,-6.604639441E-2,-2.446912527E0
2.902464847E0,-1.065264456E-3,-7.403588295E-2,-2.333994389E0
2.904464339E0,-2.663161140E-3,-8.042746782E-2,-2.213086843E0
2.906463246E0,-2.130528912E-3,-8.362326026E-2,-2.084722519E0
2.908462621E0,-5.326322280E-4,-8.202536404E-2,-1.953162432E0
2.910462933E0,-5.326322280E-4,-7.882957160E-2,-1.816808581E0
2.912464222E0,1.597896684E-3,-6.711166352E-2,-1.676726222E0
2.914464496E0,3.195793368E-3,-5.912217870E-2,-1.534513474E0
2.916464652E0,9.587380104E-3,-4.846953228E-2,-1.390702724E0
2.918465003E0,1.065264456E-2,-3.302319720E-2,-1.245826840E0
2.920465824E0,1.225054078E-2,-1.917476021E-2,-1.097222447E0
2.922464964E0,1.651159860E-2,-5.858954508E-3,-9.491506219E-1
2.924464925E0,1.651159860E-2,8.522115648E-3,-7.989483476E-1
2.926464769E0,1.917476021E-2,2.024002373E-2,-6.476807594E-1
2.928464574E0,1.810949668E-2,2.876213938E-2,-4.974785149E-1
2.930464496E0,2.183792181E-2,3.888215125E-2,-3.467435837E-1
2.932464183E0,2.343581803E-2,4.207794741E-2,-1.970739216E-1
2.934463636E0,2.450108156E-2,4.527373984E-2,-4.793690145E-2
2.936463753E0,2.450108156E-2,4.101268202E-2,9.640643001E-2
2.938463714E0,2.556634694E-2,3.834952042E-2,2.407497615E-1
2.940463949E0,2.343581803E-2,3.515372798E-2,3.808320463E-1
2.942463597E0,2.450108156E-2,2.929477207E-2,5.198490620E-1
2.944463988E0,2.077265643E-2,2.343581803E-2,6.540724039E-1
2.946463636E0,1.970739290E-2,1.384843793E-2,7.866978049E-1
2.948463792E0,1.970739290E-2,1.012001187E-2,9.139968753E-1
2.950463519E0,1.917476021E-2,4.793690052E-3,1.043959141E0
2.952463949E0,1.864212751E-2,2.663161140E-3,1.169127703E0
2.954464261E0,1.970739290E-2,-3.195793368E-3,1.295894265E0
2.956464457E0,2.024002373E-2,-1.597896684E-3,1.425323844E0
2.958464886E0,1.757686399E-2,-5.326322280E-4,1.548894525E0
2.960466371E0,1.810949668E-2,6.391586736E-3,1.670867324E0
2.962467777E0,1.491370238E-2,1.065264456E-2,1.789644241E0
2.964467699E0,1.651159860E-2,2.183792181E-2,1.904160261E0
2.966467542E0,1.864212751E-2,2.876213938E-2,2.012284517E0
2.968467113E0,1.864212751E-2,3.515372798E-2,2.119343519E0
2.970466527E0,1.864212751E-2,4.207794741E-2,2.224804878E0
2.972465746E0,2.077265643E-2,4.633900523E-2,2.327602863E0
2.974464691E0,1.970739290E-2,5.006742850E-2,2.425607204E0
2.976463910E0,2.024002373E-2,5.219795927E-2,2.521481037E0
2.978463089E0,2.024002373E-2,5.273059011E-2,2.611495733E0
2.980461839E0,1.757686399E-2,4.687163606E-2,2.735599041E0
2.982460238E0,1.757686399E-2,4.420847446E-2,2.809634924E0
2.984459574E0,1.384843793E-2,3.408846259E-2,2.877811909E0
2.986459613E0,1.384843793E-2,2.716424316E-2,2.938532114E0
2.988459613E0,1.171790902E-2,1.651159860E-2,2.990197420E0
2.990459066E0,1.384843793E-2,9.054748341E-3,3.037069082E0
2.992459457E0,1.331580617E-2,1.597896684E-3,3.077548981E0
2.994459457E0,1.171790902E-2,-7.456851192E-3,3.111104727E0
2.996460121E0,1.118527725E-2,-1.171790902E-2,3.140932322E0
2.998460667E0,1.118527725E-2,-1.597896591E-2,3.165433407E0
3.000460902E0,1.171790902E-2,-1.544633508E-2,3.185140610E0
3.002461175E0,1.225054078E-2,-1.384843793E-2,3.200587034E0
3.004461605E0,9.054748341E-3,-9.587380104E-3,3.212837696E0
3.006461449E0,1.118527725E-2,-7.989482954E-3,3.220827103E0
3.008461761E0,1.331580617E-2,1.065264456E-3,3.224555492E0
3.010461957E0,1.438106969E-2,5.326322280E-3,3.222957611E0
3.012461019E0,1.438106969E-2,1.491370238E-2,3.214968204E0
3.014459925E0,1.917476021E-2,2.130528912E-2,3.204315424E0
3.016459535E0,1.651159860E-2,2.876213938E-2,3.189934492E0
3.018459457E0,1.864212751E-2,3.568635881E-2,3.167031288E0
3.020459574E0,1.917476021E-2,3.781688958E-2,3.139334440E0
3.022460199E0,1.970739290E-2,3.994741663E-2,3.104713202E0
3.024460667E0,1.810949668E-2,3.728425503E-2,3.059972048E0
3.026461449E0,2.024002373E-2,3.089267015E-2,3.012035131E0
3.028460667E0,2.077265643E-2,2.503371425E-2,2.953445673E0
3.030460941E0,2.237055451E-2,1.544633508E-2,2.889529943E0
3.032460589E0,2.024002373E-2,1.597896684E-3,2.815494061E0
3.034461292E0,2.183792181E-2,-1.118527725E-2,2.736131668E0
3.036462230E0,1.970739290E-2,-2.130528912E-2,2.649845362E0
3.038462972E0,1.757686399E-2,-3.089267015E-2,2.555569410E0
3.040464105E0,1.491370238E-2,-4.048004746E-2,2.455434561E0
3.042465199E0,1.331580617E-2,-4.900216311E-2,2.348375559E0
3.044466253E0,1.438106969E-2,-5.645901710E-2,2.239185810E0
3.046467933E0,1.810949668E-2,-6.072007492E-2,2.123072147E0
3.048467738E0,1.704423130E-2,-6.125270575E-2,2.001631975E0
3.050467113E0,1.864212751E-2,-5.592638254E-2,1.876995921E0
3.052467855E0,1.864212751E-2,-5.006742850E-2,1.747566342E0
3.054468558E0,1.970739290E-2,-3.888215125E-2,1.614408255E0
3.056469769E0,1.970739290E-2,-2.929477207E-2,1.480717540E0
3.058471019E0,2.077265643E-2,-1.331580617E-2,1.340102673E0
3.060470746E0,2.077265643E-2,0.000000000E0,1.202683568E0
3.062470746E0,2.237055451E-2,1.331580617E-2,1.062068701E0
3.064468832E0,2.556634694E-2,2.982740477E-2,9.214537740E-1
3.066467425E0,2.716424316E-2,3.834952042E-2,7.819041014E-1
3.068466488E0,2.929477207E-2,4.527373984E-2,6.391586661E-1
3.070466058E0,2.929477207E-2,5.113269389E-2,4.953479767E-1
3.072465042E0,2.929477207E-2,5.645901710E-2,3.531351686E-1
3.074463558E0,2.503371425E-2,5.699164793E-2,2.087918371E-1
3.076462777E0,2.183792181E-2,5.432848632E-2,6.018744037E-2
3.078462933E0,2.024002373E-2,4.580637068E-2,-8.415589482E-2
3.080463011E0,1.757686399E-2,3.515372798E-2,-2.322276533E-1
3.082462738E0,1.544633508E-2,2.183792181E-2,-3.808320463E-1
3.084463441E0,1.544633508E-2,7.456851192E-3,-5.273059011E-1
3.086463363E0,1.278317347E-2,-5.858954508E-3,-6.759102941E-1
3.088463480E0,8.522115648E-3,-2.024002373E-2,-8.202536106E-1
3.090463324E0,4.261057824E-3,-2.822950855E-2,-9.661948681E-1
3.092462425E0,1.065264456E-3,-3.834952042E-2,-1.107874990E0
3.094461488E0,-3.728425596E-3,-4.261057824E-2,-1.245294094E0
3.096459886E0,-9.054748341E-3,-4.367584363E-2,-1.377919555E0
3.098458402E0,-1.065264456E-2,-4.527373984E-2,-1.500424981E0
3.100456527E0,-1.065264456E-2,-4.101268202E-2,-1.620267272E0
3.102455355E0,-1.225054078E-2,-3.355583176E-2,-1.735848427E0
3.104454847E0,-1.065264456E-2,-2.183792181E-2,-1.846103311E0
3.106454378E0,-1.225054078E-2,-1.065264456E-2,-1.954227686E0
3.108453519E0,-1.491370238E-2,4.793690052E-3,-2.054895163E0
3.110453910E0,-1.491370238E-2,2.024002373E-2,-2.152899504E0
3.112453714E0,-1.864212751E-2,3.195793182E-2,-2.248240709E0
3.114453207E0,-1.757686399E-2,4.420847446E-2,-2.341983795E0
3.116453246E0,-1.864212751E-2,5.752427876E-2,-2.429335594E0
3.118452738E0,-2.183792181E-2,6.338323653E-2,-2.514024019E0
3.120452699E0,-2.343581803E-2,6.657902896E-2,-2.596582174E0
3.122450394E0,-2.556634694E-2,6.498113275E-2,-2.673813820E0
3.124448753E0,-2.663161233E-2,5.965480953E-2,-2.749447584E0
3.126446644E0,-3.142530099E-2,5.645901710E-2,-2.821352959E0
3.128444535E0,-3.728425503E-2,4.580637068E-2,-2.885801315E0
3.130443050E0,-4.207794741E-2,3.728425503E-2,-2.947586775E0
3.132441957E0,-4.580637068E-2,2.396845073E-2,-3.005110979E0
3.134440824E0,-5.166532472E-2,1.278317347E-2,-3.057308912E0
3.136439574E0,-5.539375171E-2,0.000000000E0,-3.103647947E0
3.138440121E0,-5.965480953E-2,-1.331580617E-2,-3.142530203E0
3.140440902E0,-6.338323653E-2,-2.024002373E-2,-3.177151203E0
3.142441214E0,-6.604639441E-2,-2.929477207E-2,-3.201119661E0
3.144441410E0,-6.817692518E-2,-3.036003746E-2,-3.222424984E0
3.146441957E0,-6.870955974E-2,-3.036003746E-2,-3.236273527E0
3.148442542E0,-7.510114461E-2,-2.822950855E-2,-3.242665052E0
3.150443324E0,-7.669904083E-2,-2.237055451E-2,-3.242665052E0
3.152445121E0,-7.882957160E-2,-1.438106969E-2,-3.236273527E0
3.154445941E0,-7.669904083E-2,-4.261057824E-3,-3.227218628E0
3.156445941E0,-7.776430249E-2,6.391586736E-3,-3.209641695E0
3.158445628E0,-7.456851006E-2,2.396845073E-2,-3.171824932E0
3.160446332E0,-7.456851006E-2,3.621899337E-2,-3.139867067E0
3.162447152E0,-7.350324839E-2,5.006742850E-2,-3.105245829E0
3.164446957E0,-7.510114461E-2,5.645901710E-2,-3.061569929E0
3.166447308E0,-7.563377917E-2,6.498113275E-2,-3.012035131E0
3.168447464E0,-7.510114461E-2,6.764429063E-2,-2.959304571E0
3.170448480E0,-7.403588295E-2,6.498113275E-2,-2.894856215E0
3.172449691E0,-7.137271762E-2,6.018744037E-2,-2.829874992E0
3.174449886E0,-7.137271762E-2,4.740426689E-2,-2.753175974E0
3.176450199E0,-7.084008306E-2,3.621899337E-2,-2.672215939E0
3.178451214E0,-7.563377917E-2,2.130528912E-2,-2.584864140E0
3.180452269E0,-7.829693705E-2,6.391586736E-3,-2.492186308E0
3.182453167E0,-7.829693705E-2,-9.054748341E-3,-2.392051220E0
3.184454027E0,-7.829693705E-2,-2.609897964E-2,-2.283394337E0
3.186454261E0,-8.202536404E-2,-3.888215125E-2,-2.169411182E0
3.188454144E0,-7.776430249E-2,-5.486112088E-2,-2.047971010E0
3.190454496E0,-7.616640627E-2,-6.551376730E-2,-1.923334956E0
3.192454378E0,-7.190535218E-2,-7.137271762E-2,-1.793372750E0
3.194454339E0,-6.977482140E-2,-7.350324839E-2,-1.659149408E0
3.196454300E0,-6.870955974E-2,-7.084008306E-2,-1.522795558E0
3.198454496E0,-6.551376730E-2,-6.338323653E-2,-1.381115317E0
3.200454457E0,-5.858954415E-2,-5.486112088E-2,-1.238902569E0
3.202454183E0,-5.699164793E-2,-4.314320907E-2,-1.093493938E0
3.204454222E0,-5.379585549E-2,-2.556634694E-2,-9.454222322E-1
3.206453988E0,-4.687163606E-2,-1.384843793E-2,-7.989483476E-1
3.208454457E0,-3.994741663E-2,5.326322280E-4,-6.466155052E-1
3.210455433E0,-3.249056637E-2,1.438106969E-2,-4.980111420E-1
3.212455707E0,-2.609897964E-2,2.450108156E-2,-3.467435837E-1
3.214455902E0,-1.864212751E-2,3.675162420E-2,-1.986718178E-1
3.216455316E0,-1.651159860E-2,4.420847446E-2,-4.953479767E-2
3.218454652E0,-1.278317347E-2,4.846953228E-2,9.480853379E-2
3.220454183E0,-9.054748341E-3,4.900216311E-2,2.386192381E-1
3.222455003E0,-5.326322280E-3,4.846953228E-2,3.765709996E-1
3.224455472E0,0.000000000E0,3.941478580E-2,5.123922229E-1
3.226456449E0,1.597896684E-3,2.929477207E-2,6.396912932E-1
3.228457269E0,6.391586736E-3,1.810949668E-2,7.643272281E-1
3.230457660E0,1.065264456E-2,4.793690052E-3,8.884305358E-1
3.232458402E0,1.757686399E-2,-6.391586736E-3,1.014664412E0
3.234458753E0,1.864212751E-2,-1.810949668E-2,1.141430855E0
3.236458714E0,2.450108156E-2,-2.822950855E-2,1.267132044E0
3.238459339E0,2.769687586E-2,-3.781688958E-2,1.393898487E0
3.240460042E0,3.142530099E-2,-4.154531285E-2,1.516936541E0
3.242460980E0,3.728425503E-2,-4.580637068E-2,1.640507221E0
3.244461527E0,4.207794741E-2,-4.261057824E-2,1.757153749E0
3.246462191E0,5.060006306E-2,-3.941478580E-2,1.873800159E0
3.248462152E0,5.912217870E-2,-3.195793182E-2,1.984055042E0
3.250463089E0,6.498113275E-2,-2.343581803E-2,2.095907927E0
3.252464457E0,7.243798673E-2,-1.065264456E-2,2.204564810E0
3.254464652E0,7.882957160E-2,1.597896684E-3,2.306297541E0
3.256466214E0,8.362326026E-2,1.651159860E-2,2.405899763E0
3.258465980E0,9.108011425E-2,2.982740477E-2,2.500175714E0
3.260464769E0,9.427590668E-2,4.154531285E-2,2.587527275E0
3.262463792E0,9.960222989E-2,5.166532472E-2,2.671150684E0
3.264462503E0,1.054611802E-1,5.965480953E-2,2.744653940E0
3.266461253E0,1.075917110E-1,6.285060197E-2,2.812830687E0
3.268461058E0,1.118527651E-1,6.285060197E-2,2.875148773E0
3.270461957E0,1.155811921E-1,6.444849819E-2,2.927346706E0
3.272462230E0,1.150485575E-1,6.338323653E-2,2.975283623E0
3.274462464E0,1.166464612E-1,5.645901710E-2,3.014698505E0
3.276463011E0,1.155811921E-1,4.953479767E-2,3.049319506E0
3.278464300E0,1.177117229E-1,3.994741663E-2,3.080744743E0
3.280465238E0,1.155811921E-1,3.249056637E-2,3.102050066E0
3.282465628E0,1.187769845E-1,2.237055451E-2,3.122290134E0
3.284466683E0,1.214401498E-1,1.544633508E-2,3.137736559E0
3.286468871E0,1.203748807E-1,7.456851192E-3,3.148921728E0
3.288470980E0,1.203748807E-1,2.663161140E-3,3.154247999E0
3.290472074E0,1.246359423E-1,1.597896684E-3,3.156378508E0
3.292472933E0,1.214401498E-1,3.195793368E-3,3.155313253E0
3.294475042E0,1.209075153E-1,3.728425596E-3,3.147323847E0
3.296477308E0,1.235706806E-1,1.012001187E-2,3.140399694E0
3.298479417E0,1.225054115E-1,1.491370238E-2,3.124420643E0
3.300480589E0,1.257012039E-1,2.237055451E-2,3.105245829E0
3.302481136E0,1.230380461E-1,2.982740477E-2,3.083940506E0
3.304482386E0,1.225054115E-1,3.994741663E-2,3.055178404E0
3.306483792E0,1.251685768E-1,4.687163606E-2,3.023220539E0
3.308484183E0,1.235706806E-1,5.486112088E-2,2.985936165E0
3.310485160E0,1.203748807E-1,6.125270575E-2,2.945456266E0
3.312486292E0,1.161138266E-1,6.817692518E-2,2.891660452E0
3.314487152E0,1.107875034E-1,7.190535218E-2,2.835201263E0
3.316488011E0,1.070590764E-1,7.456851006E-2,2.769687653E0
3.318488675E0,1.059938148E-1,7.350324839E-2,2.695651770E0
3.320489222E0,1.001348570E-1,6.977482140E-2,2.613093615E0
3.322490511E0,1.012001261E-1,6.391586363E-2,2.524676800E0
3.324491449E0,9.321063757E-2,5.592638254E-2,2.427737713E0
3.326492230E0,8.362326026E-2,4.687163606E-2,2.271676540E0
3.328493519E0,7.510114461E-2,4.048004746E-2,2.157160521E0
3.330495003E0,6.924218684E-2,3.515372798E-2,2.037318230E0
3.332496097E0,6.338323653E-2,2.982740477E-2,1.918008685E0
3.334497699E0,5.752427876E-2,2.503371425E-2,1.787513733E0
3.336498128E0,5.432848632E-2,2.077265643E-2,1.658084154E0
3.338498441E0,5.219795927E-2,1.438106969E-2,1.522795558E0
3.340499730E0,4.420847446E-2,1.118527725E-2,1.379517436E0
3.342500902E0,3.941478580E-2,1.384843793E-2,1.240500450E0
3.344501214E0,3.408846259E-2,1.491370238E-2,1.095091820E0
3.346501722E0,2.822950855E-2,1.491370238E-2,9.507485032E-1
3.348501996E0,2.237055451E-2,1.864212751E-2,8.021441102E-1
3.350502308E0,1.864212751E-2,2.237055451E-2,6.524744630E-1
3.352502074E0,1.438106969E-2,2.290318534E-2,5.044026971E-1
3.354502074E0,1.171790902E-2,2.503371425E-2,3.520699143E-1
3.356502347E0,4.793690052E-3,2.876213938E-2,2.050634027E-1
3.358501957E0,-5.326322280E-4,2.929477207E-2,5.432848632E-2
3.360502582E0,-5.326322280E-3,3.036003746E-2,-9.374327213E-2
3.362504027E0,-1.118527725E-2,2.982740477E-2,-2.428802997E-1
3.364504847E0,-1.917476021E-2,2.929477207E-2,-3.893541694E-1
3.366505746E0,-2.396845073E-2,2.343581803E-2,-5.352953672E-1
3.368507113E0,-3.036003746E-2,1.704423130E-2,-6.796387434E-1
3.370508910E0,-3.515372798E-2,1.225054078E-2,-8.213189244E-1
3.372510082E0,-4.048004746E-2,1.597896684E-3,-9.608685374E-1
3.374511058E0,-4.846953228E-2,-8.522115648E-3,-1.099352956E0
3.376511722E0,-5.379585549E-2,-1.810949668E-2,-1.231445670E0
3.378512777E0,-6.072007492E-2,-2.716424316E-2,-1.358212233E0
3.380514300E0,-6.604639441E-2,-3.568635881E-2,-1.482848167E0
3.382515511E0,-7.350324839E-2,-4.154531285E-2,-1.601625085E0
3.384515121E0,-7.669904083E-2,-5.166532472E-2,-1.717738986E0
3.386515238E0,-8.042746782E-2,-5.858954415E-2,-1.829591751E0
3.388515902E0,-8.468852192E-2,-6.391586363E-2,-1.933987617E0
3.390517425E0,-8.522115648E-2,-6.817692518E-2,-2.037318230E0
3.392518949E0,-8.948221803E-2,-6.764429063E-2,-2.133192062E0
3.394520550E0,-8.841694891E-2,-6.444849819E-2,-2.228533268E0
3.396522191E0,-9.267801046E-2,-6.231797114E-2,-2.317482710E0
3.398523402E0,-9.267801046E-2,-5.699164793E-2,-2.402171373E0
3.400524261E0,-9.587380290E-2,-5.166532472E-2,-2.482598782E0
3.402524925E0,-9.374327213E-2,-4.474110901E-2,-2.562493563E0
3.404525902E0,-9.480853379E-2,-4.101268202E-2,-2.634398937E0
3.406526527E0,-9.374327213E-2,-3.515372798E-2,-2.707902193E0
3.408526136E0,-9.480853379E-2,-3.195793182E-2,-2.775546551E0
3.410525628E0,-9.534116834E-2,-2.876213938E-2,-2.839995146E0
3.412525472E0,-9.374327213E-2,-2.822950855E-2,-2.898584604E0
3.414525316E0,-9.374327213E-2,-2.929477207E-2,-2.955043554E0
3.416525082E0,-9.587380290E-2,-3.302319720E-2,-3.006176233E0
3.418525589E0,-9.693906456E-2,-3.621899337E-2,-3.051450014E0
3.420525941E0,-9.480853379E-2,-4.207794741E-2,-3.092462778E0
3.422526292E0,-9.427590668E-2,-4.793690145E-2,-3.125485897E0
3.424526644E0,-9.587380290E-2,-5.858954415E-2,-3.153182745E0
3.426527074E0,-9.214537591E-2,-6.498113275E-2,-3.170227051E0
3.428528128E0,-9.374327213E-2,-7.563377917E-2,-3.186206102E0
3.430528246E0,-9.374327213E-2,-8.468852192E-2,-3.195793390E0
3.432528011E0,-9.001484513E-2,-9.214537591E-2,-3.196858644E0
3.434528402E0,-9.267801046E-2,-9.480853379E-2,-3.194728136E0
3.436528207E0,-8.841694891E-2,-9.800432622E-2,-3.186738729E0
3.438528441E0,-8.628641814E-2,-9.960222989E-2,-3.174488068E0
3.440528246E0,-8.468852192E-2,-9.960222989E-2,-3.157443762E0
3.442528675E0,-7.936219871E-2,-9.534116834E-2,-3.137736559E0
3.444528871E0,-7.456851006E-2,-9.267801046E-2,-3.108974218E0
3.446529144E0,-7.137271762E-2,-8.628641814E-2,-3.077016354E0
3.448529105E0,-6.444849819E-2,-7.510114461E-2,-3.036003590E0
3.450529066E0,-5.858954415E-2,-6.338323653E-2,-2.989664793E0
3.452528871E0,-5.486112088E-2,-5.166532472E-2,-2.934803486E0
3.454528675E0,-4.846953228E-2,-4.314320907E-2,-2.875148773E0
3.456529144E0,-4.420847446E-2,-3.249056637E-2,-2.804841280E0
3.458529886E0,-3.781688958E-2,-2.609897964E-2,-2.728142262E0
3.460530316E0,-3.408846259E-2,-2.130528912E-2,-2.641323328E0
3.462530785E0,-2.876213938E-2,-1.864212751E-2,-2.549710512E0
3.464530824E0,-2.556634694E-2,-2.130528912E-2,-2.447445154E0
3.466531058E0,-2.024002373E-2,-2.609897964E-2,-2.338255405E0
3.468530511E0,-1.757686399E-2,-3.089267015E-2,-2.217880487E0
3.470530082E0,-1.438106969E-2,-3.621899337E-2,-2.098038435E0
3.472529652E0,-1.278317347E-2,-4.154531285E-2,-1.971804500E0
3.474529457E0,-1.225054078E-2,-4.633900523E-2,-1.840776920E0
3.476529417E0,-1.065264456E-2,-5.326322466E-2,-1.707086325E0
3.478528753E0,-6.391586736E-3,-5.699164793E-2,-1.568069220E0
3.480528050E0,-3.728425596E-3,-5.858954415E-2,-1.427986979E0
3.482527621E0,1.065264456E-3,-6.178534031E-2,-1.287904739E0
3.484527582E0,3.195793368E-3,-5.965480953E-2,-1.141430855E0
3.486527464E0,9.587380104E-3,-5.805691332E-2,-9.965549111E-1
3.488527777E0,1.278317347E-2,-5.219795927E-2,-8.495483994E-1
3.490527699E0,1.491370238E-2,-4.633900523E-2,-7.014766335E-1
3.492528480E0,2.024002373E-2,-3.621899337E-2,-5.534048676E-1
3.494528636E0,2.237055451E-2,-2.663161233E-2,-4.085289240E-1
3.496528949E0,2.556634694E-2,-1.065264456E-2,-1.912149638E-1
3.498528753E0,3.195793182E-2,1.065264456E-3,-4.740426689E-2
3.500528363E0,3.621899337E-2,1.278317347E-2,9.374327213E-2
3.502529144E0,3.941478580E-2,2.290318534E-2,2.311623842E-1
3.504529496E0,4.261057824E-2,3.142530099E-2,3.691141307E-1
3.506529144E0,4.474110901E-2,3.888215125E-2,5.017395616E-1
3.508528441E0,4.633900523E-2,4.687163606E-2,6.322344542E-1
3.510527425E0,4.846953228E-2,5.166532472E-2,7.595335841E-1
3.512526097E0,4.953479767E-2,5.219795927E-2,8.836368918E-1
3.514526058E0,4.793690145E-2,5.432848632E-2,1.007207513E0
3.516525902E0,5.273059011E-2,4.953479767E-2,1.129180312E0
3.518525628E0,5.273059011E-2,4.846953228E-2,1.253283620E0
3.520524222E0,5.379585549E-2,4.314320907E-2,1.373658538E0
3.522523207E0,5.379585549E-2,3.781688958E-2,1.496163964E0
3.524523011E0,5.219795927E-2,3.195793182E-2,1.615473509E0
3.526522347E0,5.326322466E-2,2.822950855E-2,1.732120037E0
3.528521957E0,5.006742850E-2,2.556634694E-2,1.847168565E0
3.530521566E0,5.006742850E-2,2.237055451E-2,1.955825567E0
3.532521410E0,4.953479767E-2,1.810949668E-2,2.060221434E0
3.534519886E0,4.900216311E-2,1.651159860E-2,2.163552046E0
3.536519027E0,5.113269389E-2,1.544633508E-2,2.261023760E0
3.538518363E0,5.113269389E-2,1.651159860E-2,2.356897593E0
3.540517816E0,5.273059011E-2,2.130528912E-2,2.452771425E0
3.542517816E0,5.060006306E-2,2.663161233E-2,2.540122986E0
3.544518167E0,4.900216311E-2,3.036003746E-2,2.624279022E0
3.546517699E0,4.687163606E-2,3.515372798E-2,2.702043295E0
3.548516878E0,4.633900523E-2,4.207794741E-2,2.772883415E0
3.550515980E0,4.793690145E-2,4.740426689E-2,2.836266518E0
3.552515589E0,4.793690145E-2,5.273059011E-2,2.891660452E0
3.554515824E0,4.740426689E-2,5.858954415E-2,2.941195250E0
3.556515394E0,4.580637068E-2,5.752427876E-2,2.983273029E0
3.558514613E0,4.474110901E-2,5.912217870E-2,3.018426895E0
3.560514417E0,4.420847446E-2,5.965480953E-2,3.046656370E0
3.562514808E0,4.101268202E-2,5.912217870E-2,3.071157455E0
3.564515277E0,3.781688958E-2,5.752427876E-2,3.090332270E0
3.566515941E0,3.462109342E-2,5.326322466E-2,3.102582693E0
3.568517191E0,3.355583176E-2,4.846953228E-2,3.115898609E0
3.570518246E0,3.302319720E-2,4.154531285E-2,3.122290134E0
3.572518167E0,2.982740477E-2,3.781688958E-2,3.123355389E0
3.574518988E0,2.716424316E-2,2.929477207E-2,3.124420643E0
3.576519457E0,2.396845073E-2,2.450108156E-2,3.120159626E0
3.578519457E0,2.396845073E-2,1.810949668E-2,3.111637592E0
3.580520277E0,2.183792181E-2,1.278317347E-2,3.096191168E0
3.582520589E0,1.810949668E-2,1.012001187E-2,3.080744743E0
3.584520433E0,1.704423130E-2,5.326322280E-3,3.057841539E0
3.586520902E0,1.597896591E-2,4.261057824E-3,3.029079437E0
3.588521566E0,1.438106969E-2,-5.326322280E-4,2.993925810E0
3.590522113E0,1.225054078E-2,5.326322280E-4,2.955576181E0
3.592521722E0,1.171790902E-2,-3.195793368E-3,2.902845621E0
3.594521957E0,9.054748341E-3,-2.130528912E-3,2.845321417E0
3.596521917E0,1.012001187E-2,-2.663161140E-3,2.780340195E0
3.598522699E0,1.065264456E-2,-3.728425596E-3,2.708434820E0
3.600523675E0,8.522115648E-3,-1.597896684E-3,2.627474785E0
3.602523988E0,8.522115648E-3,-1.597896684E-3,2.541188478E0
3.604524066E0,1.065264456E-2,-1.065264456E-3,2.445314646E0
3.606524105E0,6.924218964E-3,0.000000000E0,2.344647169E0
3.608524691E0,1.012001187E-2,-2.663161140E-3,2.237587929E0
3.610525003E0,8.522115648E-3,-2.130528912E-3,2.124670029E0
3.612525277E0,6.924218964E-3,-2.663161140E-3,2.006958246E0
3.614525082E0,9.054748341E-3,-5.326322280E-3,1.887115955E0
3.616525277E0,4.261057824E-3,-6.924218964E-3,1.763545275E0
3.618525121E0,5.326322280E-3,-1.012001187E-2,1.634648323E0
3.620525082E0,4.261057824E-3,-1.384843793E-2,1.505218625E0
3.622524730E0,2.130528912E-3,-1.757686399E-2,1.372060657E0
3.624523246E0,2.663161140E-3,-1.917476021E-2,1.237304688E0
3.626523441E0,1.597896684E-3,-2.343581803E-2,1.099352956E0
3.628523832E0,1.065264456E-3,-2.290318534E-2,9.608685374E-1
3.630523871E0,0.000000000E0,-2.396845073E-2,8.218515515E-1
3.632523753E0,-1.065264456E-3,-2.183792181E-2,6.823018789E-1
3.634523949E0,-2.663161140E-3,-2.343581803E-2,5.427522659E-1
3.636523324E0,-5.326322280E-4,-2.130528912E-2,4.000068009E-1
3.638523324E0,-5.326322280E-4,-2.130528912E-2,2.588592768E-1
3.640523792E0,2.130528912E-3,-1.864212751E-2,1.166464612E-1
3.642524886E0,-1.065264456E-3,-1.544633508E-2,-2.450108156E-2
3.644525472E0,-1.597896684E-3,-1.331580617E-2,-1.667138934E-1
3.646526683E0,1.597896684E-3,-7.989482954E-3,-3.099919558E-1
3.648527386E0,-2.130528912E-3,-7.989482954E-3,-4.511395097E-1
3.650527699E0,-1.597896684E-3,-5.858954508E-3,-5.917543769E-1
3.652527503E0,-1.597896684E-3,-5.326322280E-3,-7.334345579E-1
3.654528597E0,-1.065264456E-3,-4.793690052E-3,-8.708537221E-1
3.656528832E0,-1.065264456E-3,-4.793690052E-3,-1.008272767E0
3.658529769E0,-1.597896684E-3,-7.456851192E-3,-1.141430855E0
3.660530824E0,5.326322280E-4,-9.054748341E-3,-1.269795179E0
3.662531605E0,1.065264456E-3,-1.331580617E-2,-1.395496488E0
3.664532542E0,-1.065264456E-3,-1.384843793E-2,-1.512142897E0
3.666533792E0,-4.793690052E-3,-1.597896591E-2,-1.628256679E0
3.668534574E0,-5.858954508E-3,-2.077265643E-2,-1.741174698E0
3.670536058E0,-4.261057824E-3,-2.077265643E-2,-1.898833871E0
3.672538246E0,-6.924218964E-3,-2.396845073E-2,-2.000566721E0
3.674540121E0,-4.261057824E-3,-2.450108156E-2,-2.098571062E0
3.676541566E0,-5.858954508E-3,-2.343581803E-2,-2.190716267E0
3.678542621E0,-6.924218964E-3,-1.970739290E-2,-2.280731201E0
3.680544730E0,-8.522115648E-3,-1.810949668E-2,-2.363289118E0
3.682546722E0,-9.054748341E-3,-1.331580617E-2,-2.447445154E0
3.684548949E0,-1.171790902E-2,-1.065264456E-2,-2.527872562E0
3.686551019E0,-1.225054078E-2,-5.858954508E-3,-2.602973700E0
3.688553207E0,-1.118527725E-2,-2.130528912E-3,-2.674346447E0
3.690554691E0,-1.278317347E-2,2.130528912E-3,-2.743056059E0
3.692555238E0,-1.597896591E-2,8.522115648E-3,-2.807504416E0
3.694555824E0,-1.225054078E-2,1.065264456E-2,-2.868224621E0
3.696556410E0,-1.438106969E-2,1.384843793E-2,-2.922553062E0
3.698556371E0,-1.491370238E-2,1.651159860E-2,-2.973153114E0
3.700557035E0,-1.651159860E-2,1.651159860E-2,-3.016296387E0
3.702558207E0,-1.864212751E-2,1.757686399E-2,-3.054113150E0
3.704559222E0,-1.704423130E-2,1.651159860E-2,-3.085538387E0
3.706560511E0,-1.864212751E-2,1.597896591E-2,-3.110572100E0
3.708561292E0,-2.077265643E-2,1.491370238E-2,-3.127083778E0
3.710562582E0,-2.130528912E-2,1.118527725E-2,-3.139334440E0
3.712564496E0,-2.290318534E-2,1.012001187E-2,-3.141464949E0
3.714565511E0,-2.556634694E-2,5.858954508E-3,-3.140932322E0
3.716566253E0,-2.716424316E-2,5.858954508E-3,-3.131877422E0
3.718566996E0,-2.716424316E-2,6.924218964E-3,-3.117496490E0
3.720568285E0,-3.249056637E-2,6.391586736E-3,-3.100452185E0
3.722569417E0,-3.142530099E-2,3.728425596E-3,-3.072222710E0
3.724570433E0,-3.249056637E-2,5.858954508E-3,-3.041330099E0
3.726571214E0,-3.408846259E-2,9.587380104E-3,-3.007241488E0
3.728571878E0,-3.675162420E-2,1.278317347E-2,-2.968359470E0
3.730572582E0,-3.408846259E-2,1.171790902E-2,-2.923085690E0
3.732572777E0,-3.675162420E-2,1.651159860E-2,-2.873550892E0
3.734573871E0,-3.515372798E-2,1.810949668E-2,-2.816026688E0
3.736573363E0,-3.675162420E-2,2.503371425E-2,-2.758502245E0
3.738573558E0,-3.621899337E-2,2.503371425E-2,-2.693521261E0
3.740573402E0,-4.101268202E-2,2.716424316E-2,-2.623746395E0
3.742573207E0,-3.994741663E-2,2.716424316E-2,-2.547047377E0
3.744573832E0,-3.941478580E-2,2.663161233E-2,-2.466087103E0
3.746573753E0,-3.941478580E-2,2.396845073E-2,-2.375007153E0
3.748574261E0,-3.834952042E-2,2.183792181E-2,-2.281796455E0
3.750575511E0,-3.994741663E-2,1.757686399E-2,-2.180596352E0
3.752576449E0,-3.781688958E-2,1.491370238E-2,-2.073004723E0
3.754576996E0,-3.994741663E-2,7.456851192E-3,-1.957956076E0
3.756577152E0,-3.994741663E-2,3.195793368E-3,-1.839179039E0
3.758576761E0,-4.154531285E-2,-2.130528912E-3,-1.713477850E0
3.760576019E0,-3.994741663E-2,-7.456851192E-3,-1.585113525E0
3.762575589E0,-3.994741663E-2,-1.384843793E-2,-1.450890183E0
3.764575433E0,-4.101268202E-2,-1.704423130E-2,-1.314003706E0
3.766575902E0,-3.728425503E-2,-2.183792181E-2,-1.172856212E0
3.768575785E0,-3.568635881E-2,-2.396845073E-2,-1.030110717E0
3.770575589E0,-3.249056637E-2,-2.503371425E-2,-8.825715780E-1
3.772575160E0,-3.728425503E-2,-2.024002373E-2,-7.355651259E-1
3.774574925E0,-3.515372798E-2,-2.077265643E-2,-5.858954787E-1
3.776575238E0,-3.568635881E-2,-1.704423130E-2,-4.356931746E-1
3.778574847E0,-3.249056637E-2,-1.225054078E-2,-2.870887816E-1
3.780574847E0,-2.769687586E-2,-7.456851192E-3,-1.374191195E-1
3.782573597E0,-2.450108156E-2,-4.261057824E-3,7.456851192E-3
3.784572816E0,-2.130528912E-2,4.261057824E-3,1.528654546E-1
3.786571957E0,-1.864212751E-2,8.522115648E-3,2.918824553E-1
3.788571019E0,-1.651159860E-2,1.544633508E-2,4.261057973E-1
3.790570160E0,-1.491370238E-2,1.917476021E-2,5.576659441E-1
3.792568792E0,-1.171790902E-2,2.237055451E-2,6.828345060E-1
3.794567503E0,-1.118527725E-2,2.556634694E-2,8.026767969E-1
3.796566449E0,-8.522115648E-3,2.556634694E-2,9.251821637E-1
3.798565746E0,-1.597896684E-3,2.396845073E-2,1.049285531E0
3.800565667E0,5.326322280E-4,2.130528912E-2,1.172323585E0
3.802566136E0,6.924218964E-3,1.651159860E-2,1.295894265E0
3.804565863E0,7.989482954E-3,1.171790902E-2,1.415736437E0
3.806565902E0,1.331580617E-2,7.456851192E-3,1.536643982E0
3.808566292E0,1.438106969E-2,4.261057824E-3,1.650627255E0
3.810566839E0,1.864212751E-2,-1.597896684E-3,1.764610529E0
3.812567699E0,1.970739290E-2,-8.522115648E-3,1.875398040E0
3.814568480E0,2.343581803E-2,-1.225054078E-2,1.981391907E0
3.816569144E0,2.982740477E-2,-1.491370238E-2,2.087385654E0
3.818569066E0,3.462109342E-2,-1.757686399E-2,2.189651012E0
3.820569339E0,3.834952042E-2,-1.757686399E-2,2.289785862E0
3.822569027E0,4.207794741E-2,-1.757686399E-2,2.385659695E0
3.824569339E0,4.420847446E-2,-1.757686399E-2,2.475142002E0
3.826569652E0,4.900216311E-2,-1.278317347E-2,2.556102037E0
3.828569769E0,5.166532472E-2,-6.924218964E-3,2.635464191E0
3.830570355E0,5.379585549E-2,-1.597896684E-3,2.706836939E0
3.832570707E0,5.592638254E-2,3.195793368E-3,2.771285534E0
3.834570824E0,6.391586363E-2,9.054748341E-3,2.828277111E0
3.836571605E0,6.711166352E-2,1.171790902E-2,2.875681400E0
3.838571839E0,7.137271762E-2,2.130528912E-2,2.941727877E0
3.840572425E0,7.723167539E-2,2.876213938E-2,2.976881504E0
3.842573011E0,7.882957160E-2,2.769687586E-2,3.006176233E0
3.844574261E0,8.096009493E-2,2.876213938E-2,3.031209946E0
3.846574847E0,8.415589482E-2,2.929477207E-2,3.048786879E0
3.848575863E0,8.522115648E-2,3.195793182E-2,3.063168049E0
3.850576214E0,8.735168725E-2,2.876213938E-2,3.071157455E0
3.852576253E0,8.948221803E-2,2.663161233E-2,3.078614235E0
3.854577660E0,9.214537591E-2,2.183792181E-2,3.080744743E0
3.856579105E0,9.480853379E-2,1.810949668E-2,3.078081608E0
3.858579847E0,9.640643001E-2,1.331580617E-2,3.072222710E0
3.860580355E0,9.747169912E-2,9.587380104E-3,3.060504675E0
3.862580667E0,9.747169912E-2,6.924218964E-3,3.043460608E0
3.864580277E0,9.480853379E-2,5.326322280E-3,3.022687912E0
3.866581058E0,9.480853379E-2,4.261057824E-3,2.998719454E0
3.868581761E0,9.374327213E-2,1.597896684E-3,2.968892097E0
3.870582464E0,9.480853379E-2,2.130528912E-3,2.933738232E0
3.872582269E0,9.427590668E-2,1.597896684E-3,2.895921469E0
3.874583011E0,9.587380290E-2,4.261057824E-3,2.850115061E0
3.876584183E0,9.747169912E-2,5.326322280E-3,2.797917128E0
3.878585316E0,9.693906456E-2,9.054748341E-3,2.740392923E0
3.880586253E0,9.267801046E-2,1.171790902E-2,2.675944328E0
3.882585511E0,9.054747969E-2,1.704423130E-2,2.604571581E0
3.884586019E0,8.788431436E-2,2.237055451E-2,2.527339935E0
3.886586292E0,8.841694891E-2,2.769687586E-2,2.442651510E0
3.888586097E0,8.415589482E-2,3.355583176E-2,2.349973440E0
3.890585316E0,8.255799860E-2,3.515372798E-2,2.254099607E0
3.892585277E0,8.522115648E-2,3.675162420E-2,2.148105860E0
3.894585160E0,8.096009493E-2,3.941478580E-2,2.038916111E0
3.896584183E0,7.882957160E-2,4.367584363E-2,1.924400210E0
3.898583324E0,7.456851006E-2,4.740426689E-2,1.805090666E0
3.900582582E0,6.764429063E-2,4.793690145E-2,1.682585239E0
3.902582738E0,6.285060197E-2,5.006742850E-2,1.555286050E0
3.904582894E0,5.965480953E-2,4.793690145E-2,1.421062827E0
3.906582699E0,5.699164793E-2,4.527373984E-2,1.287372112E0
3.908581839E0,5.645901710E-2,3.994741663E-2,1.147289872E0
3.910581644E0,4.953479767E-2,3.408846259E-2,1.007740140E0
3.912581097E0,4.633900523E-2,3.089267015E-2,8.671252728E-1
3.914580277E0,3.941478580E-2,2.822950855E-2,7.233145833E-1
3.916578246E0,3.302319720E-2,2.503371425E-2,5.816344023E-1
3.918576136E0,2.450108156E-2,2.130528912E-2,4.372910559E-1
3.920575941E0,1.864212751E-2,1.810949668E-2,2.934803665E-1
3.922575511E0,1.225054078E-2,1.491370238E-2,1.464738697E-1
3.924575277E0,6.391586736E-3,1.331580617E-2,0.000000000E0
3.926574925E0,2.663161140E-3,1.012001187E-2,-1.443433315E-1
3.928575082E0,-2.663161140E-3,1.065264456E-2,-2.881540358E-1
3.930575550E0,-6.924218964E-3,1.118527725E-2,-4.308994710E-1
3.932575863E0,-1.331580617E-2,1.012001187E-2,-5.741775632E-1
3.934576292E0,-1.970739290E-2,1.012001187E-2,-7.158577442E-1
3.936576488E0,-2.556634694E-2,1.331580617E-2,-8.543421030E-1
3.938576957E0,-3.195793182E-2,1.384843793E-2,-9.912285805E-1
3.940577074E0,-3.728425503E-2,1.491370238E-2,-1.125451922E0
3.942576878E0,-4.048004746E-2,1.331580617E-2,-1.254881501E0
3.944576449E0,-4.793690145E-2,1.118527725E-2,-1.380050063E0
3.946576175E0,-5.006742850E-2,1.012001187E-2,-1.499359727E0
3.948575824E0,-5.379585549E-2,7.989482954E-3,-1.615473509E0
3.950575785E0,-5.912217870E-2,1.597896684E-3,-1.724663138E0
3.952575902E0,-6.498113275E-2,-5.326322280E-4,-1.831722260E0
3.954575394E0,-7.030745596E-2,-3.195793368E-3,-1.932922363E0
3.956574339E0,-7.669904083E-2,-6.924218964E-3,-2.032524586E0
3.958574261E0,-8.202536404E-2,-1.438106969E-2,-2.128398418E0
3.960575277E0,-8.628641814E-2,-2.077265643E-2,-2.218945980E0
3.962576136E0,-8.948221803E-2,-2.396845073E-2,-2.303634405E0
3.964576800E0,-9.427590668E-2,-2.769687586E-2,-2.385127068E0
3.966577972E0,-9.587380290E-2,-2.929477207E-2,-2.464489222E0
3.968578675E0,-9.960222989E-2,-2.982740477E-2,-2.538525105E0
3.970579183E0,-1.033306494E-1,-3.408846259E-2,-2.609365225E0
3.972579964E0,-1.065264493E-1,-3.302319720E-2,-2.676476955E0
3.974579925E0,-1.113201380E-1,-3.408846259E-2,-2.740392923E0
3.976579925E0,-1.113201380E-1,-3.195793182E-2,-2.799515009E0
3.978580199E0,-1.139832959E-1,-2.929477207E-2,-2.853310823E0
3.980580667E0,-1.129180342E-1,-2.982740477E-2,-2.904976130E0
3.982581058E0,-1.161138266E-1,-2.716424316E-2,-2.950782537E0
3.984581527E0,-1.155811921E-1,-2.876213938E-2,-2.990730047E0
3.986581878E0,-1.155811921E-1,-2.769687586E-2,-3.025883675E0
3.988582347E0,-1.171790883E-1,-2.929477207E-2,-3.054113150E0
3.990582855E0,-1.171790883E-1,-2.929477207E-2,-3.077016354E0
3.992583441E0,-1.161138266E-1,-2.982740477E-2,-3.094593287E0
3.994584378E0,-1.177117229E-1,-3.195793182E-2,-3.106311083E0
3.996584730E0,-1.171790883E-1,-3.834952042E-2,-3.111104727E0
3.998585472E0,-1.129180342E-1,-4.154531285E-2,-3.112702847E0
4.000586058E0,-1.134506613E-1,-4.740426689E-2,-3.107376337E0
4.002585941E0,-1.118527651E-1,-5.326322466E-2,-3.098321676E0
