"Time (s)","Gyroscope x (rad/s)","Gyroscope y (rad/s)","Gyroscope z (rad/s)"
2.727099100E-2,9.624999948E-4,3.712499980E-3,4.633750021E-2
2.977049300E-2,9.624999948E-4,-5.499999970E-4,4.413750023E-2
3.227079900E-2,9.624999948E-4,4.812499974E-3,3.891250119E-2
3.477118300E-2,9.624999948E-4,2.612499986E-3,3.671250120E-2
3.727148600E-2,-1.374999993E-4,2.612499986E-3,2.928750031E-2
3.977202400E-2,-1.374999993E-4,5.912499968E-3,2.392499894E-2
4.227241100E-2,-1.374999993E-4,4.812499974E-3,1.966249943E-2
4.477271900E-2,9.624999948E-4,3.712499980E-3,1.223750040E-2
4.727325500E-2,-1.374999993E-4,3.712499980E-3,7.974999957E-3
4.977357400E-2,-1.374999993E-4,4.812499974E-3,2.612499986E-3
5.227395700E-2,-1.374999993E-4,2.612499986E-3,-1.649999991E-3
5.477426600E-2,9.624999948E-4,1.649999991E-3,-4.812499974E-3
5.727480300E-2,-1.099999994E-3,1.649999991E-3,-1.223750040E-2
5.977511700E-2,-1.374999993E-4,3.712499980E-3,-1.856249943E-2
6.227550000E-2,9.624999948E-4,5.499999970E-4,-2.076249942E-2
6.477581000E-2,9.624999948E-4,1.649999991E-3,-2.612499893E-2
6.727634600E-2,-1.374999993E-4,5.499999970E-4,-3.024999984E-2
6.977673800E-2,-1.374999993E-4,1.649999991E-3,-3.355000168E-2
7.227704600E-2,-1.374999993E-4,1.649999991E-3,-3.877500072E-2
7.477758200E-2,-1.099999994E-3,2.612499986E-3,-4.207500070E-2
7.727789200E-2,-1.374999993E-4,3.712499980E-3,-4.633750021E-2
7.977827400E-2,-2.199999988E-3,5.499999970E-4,-5.059999973E-2
8.227857900E-2,-1.374999993E-4,1.649999991E-3,-5.582499877E-2
8.477888700E-2,-1.374999993E-4,2.612499986E-3,-5.898749828E-2
8.727942300E-2,-1.099999994E-3,3.712499980E-3,-6.118749827E-2
8.977973300E-2,-3.299999982E-3,5.499999970E-4,-6.118749827E-2
9.228035500E-2,-3.299999982E-3,1.649999991E-3,-6.228749827E-2
9.478066500E-2,-1.099999994E-3,2.612499986E-3,-6.228749827E-2
9.728105000E-2,-2.199999988E-3,3.712499980E-3,-6.435000151E-2
9.978135700E-2,-2.199999988E-3,2.612499986E-3,-6.228749827E-2
1.022816650E-1,-1.099999994E-3,1.649999991E-3,-6.544999778E-2
1.047821960E-1,-1.099999994E-3,2.612499986E-3,-6.324999779E-2
1.072825060E-1,-1.374999993E-4,-5.499999970E-4,-6.118749827E-2
1.097828890E-1,-1.374999993E-4,5.499999970E-4,-6.228749827E-2
1.122834270E-1,-1.374999993E-4,5.499999970E-4,-6.228749827E-2
1.147837280E-1,-1.374999993E-4,1.649999991E-3,-6.435000151E-2
1.172841110E-1,-1.099999994E-3,-1.649999991E-3,-6.544999778E-2
1.197844200E-1,-1.374999993E-4,-5.499999970E-4,-6.751249731E-2
1.222849570E-1,-2.199999988E-3,5.499999970E-4,-7.081250101E-2
1.247852750E-1,-2.199999988E-3,1.649999991E-3,-6.971249729E-2
1.272856580E-1,-1.099999994E-3,7.974999957E-3,-7.081250101E-2
1.297859680E-1,-2.199999988E-3,-9.074999951E-3,-7.081250101E-2
1.322865040E-1,-3.299999982E-3,-3.712499980E-3,-7.081250101E-2
1.347869010E-1,-1.374999993E-4,2.612499986E-3,-7.287500054E-2
1.372872090E-1,-1.099999994E-3,-1.649999991E-3,-7.081250101E-2
1.397875160E-1,-1.099999994E-3,-3.712499980E-3,-6.861250103E-2
1.422880530E-1,-2.199999988E-3,1.649999991E-3,-6.861250103E-2
1.447884340E-1,-2.199999988E-3,-5.499999970E-4,-6.544999778E-2
1.472887420E-1,-2.199999988E-3,-2.612499986E-3,-6.435000151E-2
1.497892780E-1,-1.374999993E-4,-5.499999970E-4,-6.118749827E-2
1.522895880E-1,-2.199999988E-3,-5.499999970E-4,-5.802499875E-2
1.547898960E-1,-1.099999994E-3,-1.649999991E-3,-5.692499876E-2
1.572902630E-1,-1.374999993E-4,5.499999970E-4,-5.376249924E-2
1.597908020E-1,-1.099999994E-3,2.612499986E-3,-5.156249925E-2
1.622911120E-1,-1.374999993E-4,-1.649999991E-3,-4.633750021E-2
1.647914940E-1,-1.099999994E-3,-1.649999991E-3,-4.303750023E-2
1.672917950E-1,-1.374999993E-4,5.499999970E-4,-3.877500072E-2
1.697923310E-1,-1.374999993E-4,5.499999970E-4,-3.781250119E-2
1.722926410E-1,9.624999948E-4,-5.499999970E-4,-3.355000168E-2
1.747930240E-1,-1.099999994E-3,-1.649999991E-3,-3.244999796E-2
1.772933000E-1,-1.374999993E-4,-5.499999970E-4,-2.818750031E-2
1.797938370E-1,-1.374999993E-4,-5.499999970E-4,-2.282499894E-2
1.822942240E-1,-1.099999994E-3,-5.499999970E-4,-1.856249943E-2
1.847945310E-1,-2.199999988E-3,3.712499980E-3,-1.223750040E-2
1.872948390E-1,9.624999948E-4,2.612499986E-3,-6.874999963E-3
1.897953700E-1,-1.374999993E-4,-1.649999991E-3,-5.499999970E-4
1.922956800E-1,9.624999948E-4,5.499999970E-4,4.812499974E-3
1.947960630E-1,-1.099999994E-3,3.712499980E-3,1.443750039E-2
1.972963720E-1,-1.374999993E-4,2.612499986E-3,2.282499894E-2
1.997968760E-1,9.624999948E-4,-5.499999970E-4,2.928750031E-2
2.022972630E-1,9.624999948E-4,5.499999970E-4,3.781250119E-2
2.047975700E-1,2.062499989E-3,2.612499986E-3,4.523750022E-2
2.072981070E-1,2.062499989E-3,1.649999991E-3,5.266249925E-2
2.097983870E-1,2.062499989E-3,1.649999991E-3,5.912499875E-2
2.122987700E-1,3.162499983E-3,-1.649999991E-3,6.338749826E-2
2.147990800E-1,3.162499983E-3,2.612499986E-3,7.191249728E-2
2.172996160E-1,2.062499989E-3,1.649999991E-3,7.507500052E-2
2.197999210E-1,3.162499983E-3,-5.499999970E-4,7.933750004E-2
2.223003030E-1,3.162499983E-3,1.649999991E-3,8.249999583E-2
2.248008420E-1,3.162499983E-3,1.649999991E-3,8.676250279E-2
2.273011520E-1,2.062499989E-3,-5.499999970E-4,8.992499858E-2
2.298015340E-1,4.124999978E-3,5.499999970E-4,9.102500230E-2
2.323018250E-1,4.124999978E-3,1.649999991E-3,9.308750182E-2
2.348023610E-1,2.062499989E-3,-5.499999970E-4,9.418749809E-2
2.373026710E-1,2.062499989E-3,5.499999970E-4,9.735000134E-2
2.398030540E-1,2.062499989E-3,1.649999991E-3,9.735000134E-2
2.423033580E-1,2.062499989E-3,1.649999991E-3,9.528750181E-2
2.448038950E-1,2.062499989E-3,5.499999970E-4,9.528750181E-2
2.473042820E-1,2.062499989E-3,2.612499986E-3,9.528750181E-2
2.498045890E-1,3.162499983E-3,5.499999970E-4,9.308750182E-2
2.523051260E-1,2.062499989E-3,-5.499999970E-4,9.212499857E-2
2.548054350E-1,2.062499989E-3,5.499999970E-4,8.786249906E-2
2.573057430E-1,2.062499989E-3,1.649999991E-3,8.139999956E-2
2.598061260E-1,2.062499989E-3,1.649999991E-3,7.507500052E-2
2.623064350E-1,2.062499989E-3,5.499999970E-4,7.081250101E-2
2.648069720E-1,5.224999972E-3,5.499999970E-4,6.435000151E-2
2.673072820E-1,3.162499983E-3,1.649999991E-3,5.486249924E-2
2.698076640E-1,9.624999948E-4,5.499999970E-4,5.059999973E-2
2.723082030E-1,2.062499989E-3,1.649999991E-3,4.207500070E-2
2.748085070E-1,3.162499983E-3,-1.649999991E-3,3.561250120E-2
2.773088900E-1,2.062499989E-3,5.499999970E-4,2.818750031E-2
2.798092000E-1,9.624999948E-4,-1.649999991E-3,2.186249942E-2
2.823097360E-1,9.624999948E-4,-5.499999970E-4,1.539999992E-2
2.848100650E-1,9.624999948E-4,-5.499999970E-4,1.443750039E-2
2.873104470E-1,-1.374999993E-4,5.499999970E-4,1.113750041E-2
2.898107570E-1,9.624999948E-4,-1.649999991E-3,4.812499974E-3
2.923112940E-1,-1.099999994E-3,5.499999970E-4,3.712499980E-3
2.948116750E-1,-1.374999993E-4,5.499999970E-4,5.499999970E-4
2.973119830E-1,9.624999948E-4,1.649999991E-3,-1.649999991E-3
2.998125190E-1,-1.374999993E-4,-5.499999970E-4,-4.812499974E-3
3.023128290E-1,-1.374999993E-4,5.499999970E-4,-5.774999969E-3
3.048131980E-1,-1.099999994E-3,-5.499999970E-4,-4.812499974E-3
3.073135070E-1,9.624999948E-4,1.649999991E-3,-1.003750041E-2
3.098140440E-1,-1.374999993E-4,-1.649999991E-3,-1.333750039E-2
3.123143540E-1,-1.099999994E-3,5.499999970E-4,-1.429999992E-2
3.148147650E-1,-1.374999993E-4,-5.499999970E-4,-1.759999990E-2
3.173150750E-1,-1.374999993E-4,5.499999970E-4,-1.856249943E-2
3.198156110E-1,-1.099999994E-3,-1.649999991E-3,-2.076249942E-2
3.223159210E-1,-1.374999993E-4,-5.499999970E-4,-2.186249942E-2
3.248163180E-1,-1.374999993E-4,-1.649999991E-3,-2.282499894E-2
3.273166270E-1,-1.374999993E-4,-5.499999970E-4,-2.186249942E-2
3.298171640E-1,-1.374999993E-4,-5.499999970E-4,-2.392499894E-2
3.323174740E-1,9.624999948E-4,5.499999970E-4,-2.186249942E-2
3.348178320E-1,-1.374999993E-4,-5.499999970E-4,-1.856249943E-2
3.373181420E-1,-1.374999993E-4,-5.499999970E-4,-1.856249943E-2
3.398186780E-1,-1.374999993E-4,-1.649999991E-3,-1.539999992E-2
3.423190650E-1,-1.374999993E-4,-1.649999991E-3,-1.429999992E-2
3.448193780E-1,9.624999948E-4,5.499999970E-4,-1.429999992E-2
3.473199140E-1,-1.099999994E-3,5.499999970E-4,-1.113750041E-2
3.498202240E-1,-1.374999993E-4,1.649999991E-3,-9.074999951E-3
3.523206060E-1,-1.374999993E-4,5.499999970E-4,-5.774999969E-3
3.548209160E-1,-1.374999993E-4,5.499999970E-4,-3.712499980E-3
3.573214240E-1,2.062499989E-3,1.649999991E-3,-2.612499986E-3
3.598217330E-1,9.624999948E-4,1.649999991E-3,-5.499999970E-4
3.623221160E-1,9.624999948E-4,-1.649999991E-3,1.649999991E-3
3.648224260E-1,9.624999948E-4,-5.499999970E-4,4.812499974E-3
3.673229710E-1,9.624999948E-4,5.499999970E-4,4.812499974E-3
3.698232810E-1,9.624999948E-4,5.499999970E-4,5.912499968E-3
3.723236630E-1,2.062499989E-3,-5.499999970E-4,1.017499994E-2
3.748239730E-1,-1.374999993E-4,5.499999970E-4,1.113750041E-2
3.773245250E-1,9.624999948E-4,-1.649999991E-3,1.333750039E-2
3.798248340E-1,9.624999948E-4,-5.499999970E-4,1.333750039E-2
3.823252170E-1,2.062499989E-3,-5.499999970E-4,1.539999992E-2
3.848257550E-1,-1.374999993E-4,5.499999970E-4,1.443750039E-2
3.873260700E-1,2.062499989E-3,-5.499999970E-4,1.649999991E-2
3.898264530E-1,9.624999948E-4,5.499999970E-4,1.539999992E-2
3.923267620E-1,-1.099999994E-3,-1.649999991E-3,1.649999991E-2
3.948272990E-1,-1.374999993E-4,1.649999991E-3,1.869999990E-2
3.973275940E-1,-1.374999993E-4,2.612499986E-3,1.869999990E-2
3.998279760E-1,-1.374999993E-4,1.649999991E-3,1.869999990E-2
4.023282860E-1,2.062499989E-3,2.612499986E-3,1.869999990E-2
4.048288220E-1,9.624999948E-4,5.499999970E-4,1.966249943E-2
4.073291270E-1,-1.099999994E-3,1.649999991E-3,1.759999990E-2
4.098295100E-1,9.624999948E-4,-5.499999970E-4,1.966249943E-2
4.123298190E-1,-1.374999993E-4,1.649999991E-3,1.649999991E-2
4.148303560E-1,-1.374999993E-4,-5.499999970E-4,1.443750039E-2
4.173306660E-1,9.624999948E-4,-5.499999970E-4,1.649999991E-2
4.198310440E-1,2.062499989E-3,-5.499999970E-4,1.443750039E-2
4.223313540E-1,9.624999948E-4,5.499999970E-4,1.539999992E-2
4.248318900E-1,2.062499989E-3,-1.649999991E-3,1.333750039E-2
4.273322770E-1,2.062499989E-3,-5.499999970E-4,1.333750039E-2
4.298325850E-1,2.062499989E-3,-5.499999970E-4,1.443750039E-2
4.323331210E-1,2.062499989E-3,5.499999970E-4,1.223750040E-2
4.348334310E-1,-1.099999994E-3,1.649999991E-3,1.333750039E-2
4.373338130E-1,9.624999948E-4,-1.649999991E-3,1.443750039E-2
4.398341180E-1,9.624999948E-4,-5.499999970E-4,1.333750039E-2
4.423346550E-1,-1.374999993E-4,-5.499999970E-4,1.443750039E-2
4.448349640E-1,-1.374999993E-4,5.499999970E-4,1.223750040E-2
4.473353470E-1,9.624999948E-4,1.649999991E-3,1.333750039E-2
4.498358370E-1,9.624999948E-4,2.612499986E-3,1.113750041E-2
4.523361470E-1,-1.374999993E-4,5.499999970E-4,9.074999951E-3
4.548365300E-1,-1.374999993E-4,-5.499999970E-4,6.874999963E-3
4.573368390E-1,-1.374999993E-4,5.499999970E-4,3.712499980E-3
4.598373610E-1,-1.099999994E-3,5.499999970E-4,3.712499980E-3
4.623376710E-1,9.624999948E-4,2.612499986E-3,2.612499986E-3
4.648380530E-1,9.624999948E-4,5.499999970E-4,1.649999991E-3
4.673383630E-1,-1.099999994E-3,5.499999970E-4,-2.612499986E-3
4.698386710E-1,9.624999948E-4,5.499999970E-4,-4.812499974E-3
4.723393130E-1,-1.374999993E-4,5.499999970E-4,-5.774999969E-3
4.748396230E-1,-1.374999993E-4,-1.649999991E-3,-7.974999957E-3
4.773401590E-1,-1.374999993E-4,-5.499999970E-4,-1.003750041E-2
4.798404690E-1,9.624999948E-4,-5.499999970E-4,-1.113750041E-2
4.823407670E-1,-1.374999993E-4,-1.649999991E-3,-1.333750039E-2
4.848411490E-1,-1.374999993E-4,-5.499999970E-4,-1.333750039E-2
4.873414590E-1,-1.374999993E-4,5.499999970E-4,-1.333750039E-2
4.898419950E-1,-1.374999993E-4,-5.499999970E-4,-1.649999991E-2
4.923423010E-1,9.624999948E-4,5.499999970E-4,-1.649999991E-2
4.948426840E-1,-1.099999994E-3,1.649999991E-3,-1.649999991E-2
4.973432220E-1,-1.374999993E-4,1.649999991E-3,-1.649999991E-2
4.998435320E-1,-1.374999993E-4,-5.499999970E-4,-1.759999990E-2
5.023439570E-1,-1.374999993E-4,5.499999970E-4,-1.649999991E-2
5.048442670E-1,-2.199999988E-3,5.499999970E-4,-1.759999990E-2
5.073448040E-1,-1.099999994E-3,5.499999970E-4,-1.966249943E-2
5.098451130E-1,-2.199999988E-3,5.499999970E-4,-1.856249943E-2
5.123454260E-1,-1.099999994E-3,-5.499999970E-4,-1.759999990E-2
5.148460390E-1,9.624999948E-4,1.649999991E-3,-1.649999991E-2
5.173463490E-1,-1.099999994E-3,-5.499999970E-4,-1.759999990E-2
5.198467330E-1,-1.374999993E-4,-5.499999970E-4,-1.649999991E-2
5.223470650E-1,-1.374999993E-4,-5.499999970E-4,-1.759999990E-2
5.248476020E-1,9.624999948E-4,5.499999970E-4,-1.649999991E-2
5.273479120E-1,-1.099999994E-3,-5.499999970E-4,-1.539999992E-2
5.298482940E-1,-1.374999993E-4,-5.499999970E-4,-1.333750039E-2
5.323485800E-1,-1.374999993E-4,-1.649999991E-3,-1.333750039E-2
5.348491160E-1,-1.374999993E-4,1.649999991E-3,-1.113750041E-2
5.373494260E-1,-1.374999993E-4,-1.649999991E-3,-1.113750041E-2
5.398498090E-1,9.624999948E-4,5.499999970E-4,-9.074999951E-3
5.423500890E-1,-1.374999993E-4,-5.499999970E-4,-9.074999951E-3
5.448506260E-1,-1.374999993E-4,1.649999991E-3,-7.974999957E-3
5.473509360E-1,9.624999948E-4,5.499999970E-4,-6.874999963E-3
5.498513180E-1,-1.374999993E-4,1.649999991E-3,-6.874999963E-3
5.523516280E-1,-1.099999994E-3,5.499999970E-4,-5.774999969E-3
5.548521590E-1,2.062499989E-3,1.649999991E-3,-5.774999969E-3
5.573524690E-1,-1.099999994E-3,1.649999991E-3,-3.712499980E-3
5.598528520E-1,-1.099999994E-3,1.649999991E-3,-3.712499980E-3
5.623533900E-1,-1.099999994E-3,1.649999991E-3,-2.612499986E-3
5.648537140E-1,9.624999948E-4,5.499999970E-4,-3.712499980E-3
5.673540960E-1,-1.374999993E-4,5.499999970E-4,-5.499999970E-4
5.698544060E-1,-1.374999993E-4,-1.649999991E-3,-5.499999970E-4
5.723547140E-1,9.624999948E-4,-5.499999970E-4,-5.499999970E-4
5.748552500E-1,-1.374999993E-4,-5.499999970E-4,5.499999970E-4
5.773556520E-1,9.624999948E-4,-5.499999970E-4,5.499999970E-4
5.798559600E-1,9.624999948E-4,1.649999991E-3,5.499999970E-4
5.823564960E-1,-1.374999993E-4,-5.499999970E-4,-1.649999991E-3
5.848568060E-1,9.624999948E-4,1.649999991E-3,-5.499999970E-4
5.873571780E-1,-1.374999993E-4,-1.649999991E-3,-2.612499986E-3
5.898574880E-1,-1.099999994E-3,-1.649999991E-3,-3.712499980E-3
5.923580250E-1,-1.099999994E-3,5.499999970E-4,-4.812499974E-3
5.948583340E-1,9.624999948E-4,-5.499999970E-4,-7.974999957E-3
5.973586970E-1,-1.099999994E-3,5.499999970E-4,-7.974999957E-3
5.998590070E-1,-1.374999993E-4,5.499999970E-4,-1.003750041E-2
6.023595430E-1,-1.374999993E-4,5.499999970E-4,-1.429999992E-2
6.048598530E-1,-2.199999988E-3,1.649999991E-3,-1.429999992E-2
6.073602200E-1,-1.099999994E-3,-5.499999970E-4,-1.759999990E-2
6.098607590E-1,9.624999948E-4,5.499999970E-4,-1.759999990E-2
6.123610690E-1,-1.374999993E-4,-5.499999970E-4,-2.076249942E-2
6.148614510E-1,-1.099999994E-3,5.499999970E-4,-1.856249943E-2
6.173617610E-1,9.624999948E-4,-5.499999970E-4,-1.856249943E-2
6.198623070E-1,-1.099999994E-3,-5.499999970E-4,-1.966249943E-2
6.223626170E-1,-1.374999993E-4,-1.649999991E-3,-1.966249943E-2
6.248630000E-1,-1.099999994E-3,5.499999970E-4,-1.966249943E-2
6.273633090E-1,-1.099999994E-3,-1.649999991E-3,-1.966249943E-2
6.298638560E-1,9.624999948E-4,5.499999970E-4,-2.076249942E-2
6.323642420E-1,-1.099999994E-3,-1.649999991E-3,-1.966249943E-2
6.348645500E-1,-1.099999994E-3,1.649999991E-3,-2.076249942E-2
6.373648580E-1,-1.374999993E-4,-1.649999991E-3,-2.186249942E-2
6.398653650E-1,-1.374999993E-4,-1.649999991E-3,-2.076249942E-2
6.423656750E-1,-1.099999994E-3,1.649999991E-3,-2.076249942E-2
6.448660580E-1,-1.374999993E-4,-1.649999991E-3,-2.282499894E-2
6.473663670E-1,-1.374999993E-4,5.499999970E-4,-2.186249942E-2
6.498668990E-1,-1.099999994E-3,-1.649999991E-3,-2.282499894E-2
6.523672850E-1,-1.374999993E-4,5.499999970E-4,-2.282499894E-2
6.548675930E-1,-2.199999988E-3,5.499999970E-4,-2.186249942E-2
6.573681300E-1,-1.374999993E-4,5.499999970E-4,-1.966249943E-2
6.598684100E-1,-1.099999994E-3,5.499999970E-4,-2.076249942E-2
6.623687930E-1,-1.099999994E-3,1.649999991E-3,-1.856249943E-2
6.648691030E-1,-1.099999994E-3,-5.499999970E-4,-1.856249943E-2
6.673696390E-1,-1.099999994E-3,1.649999991E-3,-1.429999992E-2
6.698699490E-1,-1.374999993E-4,-5.499999970E-4,-1.429999992E-2
6.723703260E-1,9.624999948E-4,1.649999991E-3,-1.333750039E-2
6.748708650E-1,-1.374999993E-4,-5.499999970E-4,-1.003750041E-2
6.773711750E-1,-1.374999993E-4,-5.499999970E-4,-1.003750041E-2
6.798715570E-1,-1.374999993E-4,-5.499999970E-4,-1.003750041E-2
6.823718720E-1,9.624999948E-4,-5.499999970E-4,-6.874999963E-3
6.848721800E-1,-1.099999994E-3,-5.499999970E-4,-9.074999951E-3
6.873727160E-1,-1.374999993E-4,5.499999970E-4,-6.874999963E-3
6.898730260E-1,9.624999948E-4,5.499999970E-4,-5.774999969E-3
6.923734030E-1,-1.099999994E-3,5.499999970E-4,-4.812499974E-3
6.948737130E-1,9.624999948E-4,1.649999991E-3,-3.712499980E-3
6.973742500E-1,2.062499989E-3,-1.649999991E-3,-2.612499986E-3
6.998746360E-1,-1.374999993E-4,-5.499999970E-4,-1.649999991E-3
7.023749630E-1,9.624999948E-4,-5.499999970E-4,-5.499999970E-4
7.048754990E-1,-1.099999994E-3,5.499999970E-4,1.649999991E-3
7.073758090E-1,-1.374999993E-4,2.612499986E-3,2.612499986E-3
7.098761920E-1,-1.374999993E-4,-5.499999970E-4,4.812499974E-3
7.123765110E-1,-1.374999993E-4,5.499999970E-4,6.874999963E-3
7.148770480E-1,-1.374999993E-4,5.499999970E-4,9.074999951E-3
7.173773580E-1,-1.374999993E-4,2.612499986E-3,1.017499994E-2
7.198777400E-1,9.624999948E-4,-5.499999970E-4,1.113750041E-2
7.223782790E-1,9.624999948E-4,1.649999991E-3,1.223750040E-2
7.248785730E-1,-1.374999993E-4,5.499999970E-4,1.443750039E-2
7.273789560E-1,9.624999948E-4,1.649999991E-3,1.539999992E-2
7.298792660E-1,9.624999948E-4,-2.612499986E-3,1.759999990E-2
7.323798020E-1,2.062499989E-3,5.499999970E-4,1.966249943E-2
7.348801170E-1,2.062499989E-3,1.649999991E-3,1.759999990E-2
7.373804990E-1,2.062499989E-3,5.499999970E-4,2.076249942E-2
7.398810380E-1,9.624999948E-4,-1.649999991E-3,2.076249942E-2
7.423813480E-1,9.624999948E-4,1.649999991E-3,1.966249943E-2
7.448816260E-1,2.062499989E-3,-5.499999970E-4,2.076249942E-2
7.473820090E-1,9.624999948E-4,-5.499999970E-4,2.186249942E-2
7.498823190E-1,2.062499989E-3,-1.649999991E-3,2.186249942E-2
7.523828550E-1,-1.374999993E-4,2.612499986E-3,2.282499894E-2
7.548831650E-1,2.062499989E-3,1.649999991E-3,2.282499894E-2
7.573835670E-1,-1.374999993E-4,-5.499999970E-4,2.392499894E-2
7.598838770E-1,2.062499989E-3,5.499999970E-4,2.502499893E-2
7.623844140E-1,-1.374999993E-4,5.499999970E-4,2.612499893E-2
7.648848000E-1,2.062499989E-3,-1.649999991E-3,2.502499893E-2
7.673851080E-1,9.624999948E-4,-1.649999991E-3,2.818750031E-2
7.698856440E-1,9.624999948E-4,5.499999970E-4,2.708750032E-2
7.723859540E-1,3.162499983E-3,-5.499999970E-4,2.818750031E-2
7.748863370E-1,9.624999948E-4,5.499999970E-4,2.708750032E-2
7.773866460E-1,9.624999948E-4,5.499999970E-4,2.708750032E-2
7.798871730E-1,9.624999948E-4,-5.499999970E-4,2.612499893E-2
7.823874830E-1,9.624999948E-4,-5.499999970E-4,2.502499893E-2
7.848878650E-1,2.062499989E-3,5.499999970E-4,2.392499894E-2
7.873881750E-1,2.062499989E-3,-5.499999970E-4,2.186249942E-2
7.898887210E-1,2.062499989E-3,-5.499999970E-4,1.966249943E-2
7.923890310E-1,-1.099999994E-3,-1.649999991E-3,1.869999990E-2
7.948894140E-1,-1.374999993E-4,1.649999991E-3,1.759999990E-2
7.973897230E-1,9.624999948E-4,-1.649999991E-3,1.443750039E-2
7.998902640E-1,-1.374999993E-4,-5.499999970E-4,1.333750039E-2
8.023905730E-1,9.624999948E-4,-1.649999991E-3,1.333750039E-2
8.048909560E-1,2.062499989E-3,5.499999970E-4,1.443750039E-2
8.073914950E-1,9.624999948E-4,5.499999970E-4,1.017499994E-2
8.098917900E-1,-1.374999993E-4,5.499999970E-4,1.223750040E-2
8.123921730E-1,-1.374999993E-4,-5.499999970E-4,1.017499994E-2
8.148924830E-1,-1.374999993E-4,5.499999970E-4,1.017499994E-2
8.173930190E-1,2.062499989E-3,-5.499999970E-4,7.974999957E-3
8.198933290E-1,-1.374999993E-4,5.499999970E-4,9.074999951E-3
8.223937160E-1,2.062499989E-3,-5.499999970E-4,7.974999957E-3
8.248940260E-1,9.624999948E-4,5.499999970E-4,6.874999963E-3
8.273945630E-1,-1.099999994E-3,-1.649999991E-3,5.912499968E-3
8.298949490E-1,-1.099999994E-3,-5.499999970E-4,6.874999963E-3
8.323952710E-1,9.624999948E-4,5.499999970E-4,4.812499974E-3
8.348958070E-1,9.624999948E-4,-5.499999970E-4,2.612499986E-3
8.373961170E-1,-1.374999993E-4,-5.499999970E-4,3.712499980E-3
8.398965000E-1,9.624999948E-4,-1.649999991E-3,1.649999991E-3
8.423967850E-1,2.062499989E-3,5.499999970E-4,1.649999991E-3
8.448973220E-1,9.624999948E-4,5.499999970E-4,2.612499986E-3
8.473976320E-1,-1.374999993E-4,-5.499999970E-4,1.649999991E-3
8.498980140E-1,-1.099999994E-3,-1.649999991E-3,-5.499999970E-4
8.523983050E-1,2.062499989E-3,-5.499999970E-4,-5.499999970E-4
8.548988410E-1,-1.374999993E-4,-1.649999991E-3,5.499999970E-4
8.573991510E-1,9.624999948E-4,5.499999970E-4,1.649999991E-3
8.598995340E-1,9.624999948E-4,5.499999970E-4,-5.499999970E-4
8.623998480E-1,-1.099999994E-3,5.499999970E-4,2.612499986E-3
8.649003850E-1,9.624999948E-4,5.499999970E-4,2.612499986E-3
8.674006940E-1,-1.099999994E-3,2.612499986E-3,5.499999970E-4
8.699010770E-1,9.624999948E-4,-5.499999970E-4,1.649999991E-3
8.724016200E-1,-1.374999993E-4,5.499999970E-4,2.612499986E-3
8.749019290E-1,-1.374999993E-4,-1.649999991E-3,3.712499980E-3
8.774023120E-1,-1.374999993E-4,-5.499999970E-4,3.712499980E-3
8.799026220E-1,-1.374999993E-4,5.499999970E-4,2.612499986E-3
8.824031490E-1,-1.374999993E-4,5.499999970E-4,3.712499980E-3
8.849034590E-1,-1.374999993E-4,1.649999991E-3,3.712499980E-3
8.874037660E-1,2.062499989E-3,5.499999970E-4,1.649999991E-3
8.899041490E-1,9.624999948E-4,-5.499999970E-4,3.712499980E-3
8.924046780E-1,-1.374999993E-4,-1.649999991E-3,2.612499986E-3
8.949050640E-1,-1.374999993E-4,5.499999970E-4,3.712499980E-3
8.974053720E-1,9.624999948E-4,-5.499999970E-4,5.499999970E-4
8.999059080E-1,-1.374999993E-4,-5.499999970E-4,3.712499980E-3
9.024062180E-1,9.624999948E-4,-1.649999991E-3,2.612499986E-3
9.049066010E-1,9.624999948E-4,5.499999970E-4,2.612499986E-3
9.074069100E-1,2.062499989E-3,-5.499999970E-4,4.812499974E-3
9.099074470E-1,9.624999948E-4,-5.499999970E-4,1.649999991E-3
9.124077570E-1,2.062499989E-3,-5.499999970E-4,2.612499986E-3
9.149081730E-1,-1.374999993E-4,5.499999970E-4,4.812499974E-3
9.174084830E-1,-1.374999993E-4,-5.499999970E-4,5.912499968E-3
9.199090190E-1,2.062499989E-3,-5.499999970E-4,3.712499980E-3
9.224093290E-1,9.624999948E-4,-5.499999970E-4,6.874999963E-3
9.249096920E-1,-1.374999993E-4,1.649999991E-3,5.912499968E-3
9.274100010E-1,9.624999948E-4,-1.649999991E-3,5.912499968E-3
9.299105380E-1,-1.374999993E-4,-1.649999991E-3,5.912499968E-3
9.324108470E-1,-1.374999993E-4,-5.499999970E-4,5.912499968E-3
9.349111710E-1,9.624999948E-4,1.649999991E-3,6.874999963E-3
9.374117850E-1,2.062499989E-3,5.499999970E-4,9.074999951E-3
9.399120940E-1,9.624999948E-4,-5.499999970E-4,5.912499968E-3
9.424124780E-1,9.624999948E-4,-5.499999970E-4,6.874999963E-3
9.449127870E-1,-1.374999993E-4,-5.499999970E-4,6.874999963E-3
9.474133370E-1,2.062499989E-3,-5.499999970E-4,5.912499968E-3
9.499136470E-1,2.062499989E-3,-1.649999991E-3,7.974999957E-3
9.524139540E-1,9.624999948E-4,-5.499999970E-4,5.912499968E-3
9.549143370E-1,9.624999948E-4,-5.499999970E-4,5.912499968E-3
9.574146420E-1,9.624999948E-4,-5.499999970E-4,6.874999963E-3
9.599151780E-1,-1.099999994E-3,5.499999970E-4,5.912499968E-3
9.624155650E-1,2.062499989E-3,1.649999991E-3,7.974999957E-3
9.649158730E-1,-1.374999993E-4,-1.649999991E-3,4.812499974E-3
9.674164090E-1,9.624999948E-4,5.499999970E-4,6.874999963E-3
9.699167190E-1,-1.374999993E-4,5.499999970E-4,6.874999963E-3
9.724171010E-1,-1.099999994E-3,3.712499980E-3,6.874999963E-3
9.749174110E-1,-1.374999993E-4,-5.499999970E-4,5.912499968E-3
9.774179480E-1,-1.374999993E-4,5.499999970E-4,7.974999957E-3
9.799182670E-1,9.624999948E-4,-5.499999970E-4,6.874999963E-3
9.824186500E-1,9.624999948E-4,5.499999970E-4,7.974999957E-3
9.849191880E-1,-1.374999993E-4,-1.649999991E-3,6.874999963E-3
9.874194980E-1,2.062499989E-3,5.499999970E-4,6.874999963E-3
9.899198760E-1,-1.374999993E-4,5.499999970E-4,5.912499968E-3
9.924201850E-1,9.624999948E-4,-1.649999991E-3,4.812499974E-3
9.949207220E-1,-1.374999993E-4,-1.649999991E-3,3.712499980E-3
9.974210310E-1,9.624999948E-4,5.499999970E-4,2.612499986E-3
9.999214140E-1,2.062499989E-3,5.499999970E-4,2.612499986E-3
1.002421743E0,2.062499989E-3,5.499999970E-4,3.712499980E-3
1.004922279E0,-1.374999993E-4,-1.649999991E-3,5.499999970E-4
1.007422589E0,9.624999948E-4,1.649999991E-3,1.649999991E-3
1.009922972E0,-1.374999993E-4,-5.499999970E-4,5.499999970E-4
1.012423281E0,-1.374999993E-4,5.499999970E-4,1.649999991E-3
1.014923818E0,9.624999948E-4,-5.499999970E-4,1.649999991E-3
1.017424127E0,-1.374999993E-4,-5.499999970E-4,-1.649999991E-3
1.019924510E0,9.624999948E-4,1.649999991E-3,-5.499999970E-4
1.022424854E0,-1.374999993E-4,-5.499999970E-4,1.649999991E-3
1.024925390E0,-1.099999994E-3,1.649999991E-3,-5.499999970E-4
1.027425700E0,-1.099999994E-3,5.499999970E-4,-5.499999970E-4
1.029926083E0,9.624999948E-4,1.649999991E-3,-1.649999991E-3
1.032426616E0,9.624999948E-4,2.612499986E-3,-1.649999991E-3
1.034926926E0,-1.374999993E-4,1.649999991E-3,-1.649999991E-3
1.037427308E0,-1.374999993E-4,1.649999991E-3,-2.612499986E-3
1.039927618E0,-1.374999993E-4,5.499999970E-4,-3.712499980E-3
1.042428145E0,9.624999948E-4,2.612499986E-3,-2.612499986E-3
1.044928454E0,9.624999948E-4,-5.499999970E-4,-6.874999963E-3
1.047428837E0,9.624999948E-4,-1.649999991E-3,-5.774999969E-3
1.049929375E0,2.062499989E-3,-5.499999970E-4,-6.874999963E-3
1.052429685E0,9.624999948E-4,-5.499999970E-4,-7.974999957E-3
1.054930107E0,-1.374999993E-4,-5.499999970E-4,-9.074999951E-3
1.057430416E0,9.624999948E-4,-1.649999991E-3,-1.003750041E-2
1.059930724E0,-1.374999993E-4,1.649999991E-3,-1.003750041E-2
1.062431260E0,-1.374999993E-4,1.649999991E-3,-9.074999951E-3
1.064931570E0,9.624999948E-4,-5.499999970E-4,-9.074999951E-3
1.067431953E0,-1.099999994E-3,5.499999970E-4,-1.003750041E-2
1.069932263E0,-1.099999994E-3,5.499999970E-4,-1.113750041E-2
1.072432876E0,9.624999948E-4,5.499999970E-4,-1.223750040E-2
1.074933186E0,-1.099999994E-3,-5.499999970E-4,-9.074999951E-3
1.077433483E0,-1.099999994E-3,5.499999970E-4,-1.003750041E-2
1.079934020E0,-1.374999993E-4,1.649999991E-3,-1.113750041E-2
1.082434329E0,-1.374999993E-4,5.499999970E-4,-1.003750041E-2
1.084934712E0,-1.374999993E-4,5.499999970E-4,-1.113750041E-2
1.087435003E0,-1.374999993E-4,1.649999991E-3,-1.113750041E-2
1.089935539E0,-1.374999993E-4,1.649999991E-3,-1.113750041E-2
1.092435849E0,-1.374999993E-4,5.499999970E-4,-1.223750040E-2
1.094936232E0,-1.374999993E-4,5.499999970E-4,-1.333750039E-2
1.097436784E0,-1.099999994E-3,5.499999970E-4,-1.539999992E-2
1.099937094E0,-1.374999993E-4,-5.499999970E-4,-1.429999992E-2
1.102437476E0,-1.374999993E-4,5.499999970E-4,-1.539999992E-2
1.104937786E0,-1.374999993E-4,-5.499999970E-4,-1.429999992E-2
1.107438084E0,-1.374999993E-4,5.499999970E-4,-1.539999992E-2
1.109938620E0,-1.374999993E-4,-1.649999991E-3,-1.539999992E-2
1.112438930E0,9.624999948E-4,5.499999970E-4,-1.429999992E-2
1.114939313E0,-1.374999993E-4,-1.649999991E-3,-1.429999992E-2
1.117439851E0,-1.374999993E-4,5.499999970E-4,-1.333750039E-2
1.119940238E0,-1.374999993E-4,-1.649999991E-3,-1.429999992E-2
1.122440545E0,-1.099999994E-3,1.649999991E-3,-1.223750040E-2
1.124941082E0,-1.374999993E-4,-5.499999970E-4,-1.113750041E-2
1.127441391E0,-1.374999993E-4,2.612499986E-3,-1.223750040E-2
1.129941698E0,-1.099999994E-3,5.499999970E-4,-1.113750041E-2
1.132442081E0,2.062499989E-3,5.499999970E-4,-1.003750041E-2
1.134942391E0,-1.099999994E-3,1.649999991E-3,-1.003750041E-2
1.137442927E0,-1.374999993E-4,5.499999970E-4,-1.003750041E-2
1.139943310E0,-1.374999993E-4,-1.649999991E-3,-1.113750041E-2
1.142443617E0,9.624999948E-4,5.499999970E-4,-7.974999957E-3
1.144944154E0,-1.099999994E-3,5.499999970E-4,-9.074999951E-3
1.147444463E0,9.624999948E-4,-2.612499986E-3,-9.074999951E-3
1.149944846E0,-1.099999994E-3,5.499999970E-4,-7.974999957E-3
1.152445175E0,9.624999948E-4,-5.499999970E-4,-9.074999951E-3
1.154945711E0,-1.374999993E-4,5.499999970E-4,-1.113750041E-2
1.157446021E0,9.624999948E-4,-5.499999970E-4,-9.074999951E-3
1.159946404E0,-1.374999993E-4,5.499999970E-4,-6.874999963E-3
1.162446713E0,9.624999948E-4,-5.499999970E-4,-9.074999951E-3
1.164947250E0,9.624999948E-4,-5.499999970E-4,-6.874999963E-3
1.167447559E0,9.624999948E-4,-5.499999970E-4,-6.874999963E-3
1.169947942E0,-1.374999993E-4,1.649999991E-3,-5.774999969E-3
1.172448223E0,-1.374999993E-4,1.649999991E-3,-4.812499974E-3
1.174948759E0,-1.374999993E-4,5.499999970E-4,-3.712499980E-3
1.177449069E0,-1.374999993E-4,5.499999970E-4,-1.649999991E-3
1.179949452E0,-1.374999993E-4,5.499999970E-4,-2.612499986E-3
1.182449766E0,-1.374999993E-4,5.499999970E-4,-2.612499986E-3
1.184950303E0,-1.374999993E-4,-5.499999970E-4,-2.612499986E-3
1.187450689E0,-1.374999993E-4,5.499999970E-4,-5.499999970E-4
1.189950997E0,-1.374999993E-4,5.499999970E-4,-5.499999970E-4
1.192451533E0,-1.374999993E-4,-5.499999970E-4,-2.612499986E-3
1.194951833E0,9.624999948E-4,-1.649999991E-3,-1.649999991E-3
1.197452216E0,9.624999948E-4,-5.499999970E-4,-2.612499986E-3
1.199952526E0,-1.374999993E-4,-1.649999991E-3,-5.499999970E-4
1.202453062E0,-1.374999993E-4,5.499999970E-4,-3.712499980E-3
1.204953382E0,9.624999948E-4,-1.649999991E-3,-3.712499980E-3
1.207453764E0,9.624999948E-4,5.499999970E-4,-3.712499980E-3
1.209954303E0,9.624999948E-4,5.499999970E-4,-1.649999991E-3
1.212454612E0,-1.374999993E-4,-5.499999970E-4,-2.612499986E-3
1.214954980E0,-1.374999993E-4,-1.649999991E-3,-2.612499986E-3
1.217455290E0,-1.099999994E-3,-5.499999970E-4,-1.649999991E-3
1.219955826E0,-1.099999994E-3,-5.499999970E-4,-1.649999991E-3
1.222456136E0,9.624999948E-4,1.649999991E-3,-5.499999970E-4
1.224956415E0,9.624999948E-4,5.499999970E-4,-5.499999970E-4
1.227456797E0,9.624999948E-4,5.499999970E-4,2.612499986E-3
1.229957336E0,-1.374999993E-4,-2.612499986E-3,5.499999970E-4
1.232457645E0,-1.099999994E-3,5.499999970E-4,5.499999970E-4
1.234958043E0,-1.374999993E-4,-5.499999970E-4,-5.499999970E-4
1.237458353E0,-1.374999993E-4,5.499999970E-4,-2.612499986E-3
1.239958889E0,9.624999948E-4,-5.499999970E-4,-1.649999991E-3
1.242459199E0,-2.199999988E-3,1.649999991E-3,-4.812499974E-3
1.244959582E0,-1.099999994E-3,-1.649999991E-3,-2.612499986E-3
1.247459905E0,-1.374999993E-4,-5.499999970E-4,-3.712499980E-3
1.249960442E0,-1.374999993E-4,-5.499999970E-4,-5.774999969E-3
1.252460828E0,9.624999948E-4,-1.649999991E-3,-6.874999963E-3
1.254961136E0,-1.374999993E-4,-5.499999970E-4,-6.874999963E-3
1.257461663E0,9.624999948E-4,-5.499999970E-4,-5.774999969E-3
1.259961973E0,-1.099999994E-3,-5.499999970E-4,-5.774999969E-3
1.262462356E0,-1.374999993E-4,5.499999970E-4,-6.874999963E-3
1.264962666E0,9.624999948E-4,-5.499999970E-4,-5.774999969E-3
1.267463221E0,-1.374999993E-4,-5.499999970E-4,-6.874999963E-3
1.269963531E0,-1.374999993E-4,-1.649999991E-3,-4.812499974E-3
1.272463913E0,9.624999948E-4,5.499999970E-4,-7.974999957E-3
1.274964452E0,2.062499989E-3,1.649999991E-3,-7.974999957E-3
1.277464756E0,-1.374999993E-4,5.499999970E-4,-7.974999957E-3
1.279965139E0,-1.374999993E-4,-5.499999970E-4,-5.774999969E-3
1.282465449E0,-1.099999994E-3,1.649999991E-3,-9.074999951E-3
1.284965985E0,-1.374999993E-4,1.649999991E-3,-9.074999951E-3
1.287466305E0,-1.374999993E-4,-5.499999970E-4,-1.113750041E-2
1.289966688E0,9.624999948E-4,5.499999970E-4,-1.113750041E-2
1.292466997E0,9.624999948E-4,-5.499999970E-4,-1.223750040E-2
1.294967534E0,9.624999948E-4,5.499999970E-4,-1.429999992E-2
1.297467852E0,-1.099999994E-3,-5.499999970E-4,-1.223750040E-2
1.299968235E0,-1.099999994E-3,1.649999991E-3,-1.333750039E-2
1.302468545E0,-1.099999994E-3,-5.499999970E-4,-1.333750039E-2
1.304969081E0,-1.099999994E-3,5.499999970E-4,-1.333750039E-2
1.307469391E0,9.624999948E-4,-5.499999970E-4,-1.223750040E-2
1.309969784E0,9.624999948E-4,-5.499999970E-4,-1.333750039E-2
1.312470093E0,-1.374999993E-4,5.499999970E-4,-1.429999992E-2
1.314970630E0,-1.374999993E-4,5.499999970E-4,-1.333750039E-2
1.317471016E0,-1.374999993E-4,-5.499999970E-4,-1.333750039E-2
1.319971295E0,-1.374999993E-4,-1.649999991E-3,-1.223750040E-2
1.322471831E0,-1.374999993E-4,-5.499999970E-4,-1.223750040E-2
1.324972141E0,9.624999948E-4,5.499999970E-4,-1.223750040E-2
1.327472524E0,-1.374999993E-4,-5.499999970E-4,-1.113750041E-2
1.329972819E0,-1.099999994E-3,5.499999970E-4,-1.333750039E-2
1.332473355E0,-1.374999993E-4,5.499999970E-4,-1.333750039E-2
1.334973665E0,-1.099999994E-3,-5.499999970E-4,-1.113750041E-2
1.337474047E0,-1.374999993E-4,5.499999970E-4,-1.223750040E-2
1.339974357E0,-1.099999994E-3,-1.649999991E-3,-1.113750041E-2
1.342474917E0,-1.374999993E-4,5.499999970E-4,-1.113750041E-2
1.344975227E0,-1.099999994E-3,-5.499999970E-4,-1.223750040E-2
1.347475610E0,-1.099999994E-3,5.499999970E-4,-1.113750041E-2
1.349975919E0,-1.099999994E-3,-5.499999970E-4,-1.113750041E-2
1.352476452E0,9.624999948E-4,5.499999970E-4,-9.074999951E-3
1.354976762E0,-1.374999993E-4,-5.499999970E-4,-6.874999963E-3
1.357477144E0,-1.374999993E-4,5.499999970E-4,-6.874999963E-3
1.359977454E0,9.624999948E-4,-5.499999970E-4,-4.812499974E-3
1.362477990E0,-1.374999993E-4,5.499999970E-4,-3.712499980E-3
1.364978362E0,9.624999948E-4,-5.499999970E-4,-3.712499980E-3
1.367478670E0,-1.099999994E-3,-5.499999970E-4,-2.612499986E-3
1.369979206E0,-1.374999993E-4,5.499999970E-4,-5.499999970E-4
1.372479516E0,-1.374999993E-4,5.499999970E-4,5.499999970E-4
1.374979894E0,-1.374999993E-4,-1.649999991E-3,2.612499986E-3
1.377480203E0,9.624999948E-4,-5.499999970E-4,2.612499986E-3
1.379980740E0,-1.374999993E-4,-1.649999991E-3,4.812499974E-3
1.382481049E0,2.062499989E-3,5.499999970E-4,4.812499974E-3
1.384981357E0,-1.099999994E-3,5.499999970E-4,4.812499974E-3
1.387481769E0,9.624999948E-4,5.499999970E-4,6.874999963E-3
1.389982307E0,-2.199999988E-3,5.499999970E-4,7.974999957E-3
1.392482617E0,-1.374999993E-4,-5.499999970E-4,9.074999951E-3
1.394983000E0,-1.099999994E-3,5.499999970E-4,9.074999951E-3
1.397483319E0,-1.099999994E-3,5.499999970E-4,9.074999951E-3
1.399983856E0,9.624999948E-4,1.649999991E-3,1.017499994E-2
1.402484165E0,9.624999948E-4,1.649999991E-3,1.333750039E-2
1.404984548E0,9.624999948E-4,5.499999970E-4,1.539999992E-2
1.407485086E0,-1.374999993E-4,-5.499999970E-4,1.759999990E-2
1.409985396E0,9.624999948E-4,5.499999970E-4,1.869999990E-2
1.412485779E0,2.062499989E-3,-1.649999991E-3,1.869999990E-2
1.414986088E0,9.624999948E-4,5.499999970E-4,2.282499894E-2
1.417486625E0,9.624999948E-4,-5.499999970E-4,2.186249942E-2
1.419986935E0,2.062499989E-3,5.499999970E-4,2.282499894E-2
1.422487317E0,9.624999948E-4,5.499999970E-4,2.502499893E-2
1.424987627E0,9.624999948E-4,5.499999970E-4,2.502499893E-2
1.427488163E0,-1.374999993E-4,5.499999970E-4,2.612499893E-2
1.429988550E0,-1.099999994E-3,-5.499999970E-4,2.708750032E-2
1.432488867E0,2.062499989E-3,5.499999970E-4,2.928750031E-2
1.434989403E0,9.624999948E-4,-5.499999970E-4,2.818750031E-2
1.437489713E0,9.624999948E-4,-5.499999970E-4,2.928750031E-2
1.439990021E0,-1.099999994E-3,-1.649999991E-3,3.135000169E-2
1.442490384E0,-1.374999993E-4,5.499999970E-4,3.038750030E-2
1.444990694E0,2.062499989E-3,-5.499999970E-4,3.038750030E-2
1.447491230E0,9.624999948E-4,5.499999970E-4,3.244999796E-2
1.449991540E0,2.062499989E-3,-5.499999970E-4,3.244999796E-2
1.452491923E0,9.624999948E-4,5.499999970E-4,3.355000168E-2
1.454992476E0,2.062499989E-3,-5.499999970E-4,3.464999795E-2
1.457492786E0,-1.374999993E-4,-5.499999970E-4,3.464999795E-2
1.459993169E0,9.624999948E-4,1.649999991E-3,3.671250120E-2
1.462493478E0,2.062499989E-3,1.649999991E-3,3.891250119E-2
1.464994006E0,2.062499989E-3,1.649999991E-3,3.671250120E-2
1.467494315E0,9.624999948E-4,-1.649999991E-3,3.781250119E-2
1.469994698E0,9.624999948E-4,5.499999970E-4,3.671250120E-2
1.472495008E0,9.624999948E-4,5.499999970E-4,3.561250120E-2
1.474995529E0,9.624999948E-4,-5.499999970E-4,3.561250120E-2
1.477495916E0,3.162499983E-3,-5.499999970E-4,3.355000168E-2
1.479996223E0,9.624999948E-4,-1.649999991E-3,3.561250120E-2
1.482496531E0,9.624999948E-4,-5.499999970E-4,3.464999795E-2
1.484997063E0,-1.374999993E-4,1.649999991E-3,3.244999796E-2
1.487497372E0,2.062499989E-3,-1.649999991E-3,3.355000168E-2
1.489997755E0,9.624999948E-4,5.499999970E-4,3.355000168E-2
1.492498065E0,2.062499989E-3,-5.499999970E-4,3.355000168E-2
1.494998621E0,9.624999948E-4,1.649999991E-3,3.135000169E-2
1.497499008E0,-1.374999993E-4,-5.499999970E-4,2.928750031E-2
1.499999544E0,-1.374999993E-4,-5.499999970E-4,3.135000169E-2
1.502499854E0,2.062499989E-3,5.499999970E-4,3.135000169E-2
1.505000162E0,9.624999948E-4,1.649999991E-3,3.135000169E-2
1.507500548E0,9.624999948E-4,-5.499999970E-4,2.928750031E-2
1.510000858E0,-1.374999993E-4,5.499999970E-4,2.928750031E-2
1.512501394E0,9.624999948E-4,-5.499999970E-4,2.708750032E-2
1.515001704E0,-1.374999993E-4,-1.649999991E-3,2.612499893E-2
1.517502073E0,9.624999948E-4,-5.499999970E-4,2.502499893E-2
1.520002611E0,9.624999948E-4,-5.499999970E-4,2.186249942E-2
1.522502921E0,9.624999948E-4,-1.649999991E-3,1.966249943E-2
1.525003304E0,-1.374999993E-4,-5.499999970E-4,1.759999990E-2
1.527503622E0,9.624999948E-4,-1.649999991E-3,1.759999990E-2
1.530004159E0,2.062499989E-3,5.499999970E-4,1.333750039E-2
1.532504468E0,9.624999948E-4,5.499999970E-4,1.333750039E-2
1.535004851E0,-1.374999993E-4,-5.499999970E-4,1.017499994E-2
1.537505161E0,-1.374999993E-4,-5.499999970E-4,9.074999951E-3
1.540005712E0,-1.374999993E-4,5.499999970E-4,6.874999963E-3
1.542506022E0,9.624999948E-4,5.499999970E-4,6.874999963E-3
1.545006404E0,9.624999948E-4,5.499999970E-4,6.874999963E-3
1.547506714E0,9.624999948E-4,1.649999991E-3,3.712499980E-3
1.550007236E0,-1.374999993E-4,-5.499999970E-4,3.712499980E-3
1.552507545E0,-1.374999993E-4,5.499999970E-4,2.612499986E-3
1.555007928E0,9.624999948E-4,-1.649999991E-3,1.649999991E-3
1.557508238E0,-1.374999993E-4,5.499999970E-4,-5.499999970E-4
1.560008755E0,9.624999948E-4,-1.649999991E-3,-2.612499986E-3
1.562509142E0,9.624999948E-4,5.499999970E-4,-4.812499974E-3
1.565009449E0,-1.374999993E-4,-5.499999970E-4,-6.874999963E-3
1.567509986E0,-1.374999993E-4,1.649999991E-3,-9.074999951E-3
1.570010277E0,-1.374999993E-4,-1.649999991E-3,-1.223750040E-2
1.572510659E0,-1.374999993E-4,1.649999991E-3,-1.539999992E-2
1.575010969E0,-1.374999993E-4,-5.499999970E-4,-1.856249943E-2
1.577511505E0,-1.374999993E-4,-5.499999970E-4,-1.966249943E-2
1.580011815E0,-1.374999993E-4,5.499999970E-4,-2.076249942E-2
1.582512198E0,-1.374999993E-4,5.499999970E-4,-2.392499894E-2
1.585012736E0,-1.099999994E-3,-5.499999970E-4,-2.502499893E-2
1.587513046E0,-1.374999993E-4,5.499999970E-4,-2.612499893E-2
1.590013429E0,-2.199999988E-3,5.499999970E-4,-2.708750032E-2
1.592513738E0,-1.099999994E-3,1.649999991E-3,-2.818750031E-2
1.595014046E0,-1.099999994E-3,5.499999970E-4,-2.708750032E-2
1.597514582E0,-1.099999994E-3,5.499999970E-4,-3.135000169E-2
1.600014892E0,-1.374999993E-4,5.499999970E-4,-3.135000169E-2
1.602515260E0,-1.374999993E-4,5.499999970E-4,-3.135000169E-2
1.605015798E0,-1.099999994E-3,1.649999991E-3,-3.355000168E-2
1.607516108E0,-2.199999988E-3,-1.649999991E-3,-3.355000168E-2
1.610016490E0,-2.199999988E-3,5.499999970E-4,-3.451250121E-2
1.612516795E0,-1.099999994E-3,1.649999991E-3,-3.561250120E-2
1.615017332E0,-1.099999994E-3,5.499999970E-4,-3.781250119E-2
1.617517641E0,-1.099999994E-3,5.499999970E-4,-3.987500072E-2
1.620018024E0,-1.099999994E-3,-1.649999991E-3,-3.987500072E-2
1.622518334E0,-1.099999994E-3,-5.499999970E-4,-4.303750023E-2
1.625018870E0,-2.199999988E-3,-1.649999991E-3,-4.303750023E-2
1.627519257E0,-1.099999994E-3,-2.612499986E-3,-4.413750023E-2
1.630019564E0,-1.099999994E-3,-1.649999991E-3,-4.523750022E-2
1.632520101E0,-1.099999994E-3,5.499999970E-4,-4.413750023E-2
1.635020407E0,-1.099999994E-3,-1.649999991E-3,-4.523750022E-2
1.637520789E0,-1.099999994E-3,-5.499999970E-4,-4.303750023E-2
1.640021099E0,-1.099999994E-3,-5.499999970E-4,-4.303750023E-2
1.642521635E0,-1.374999993E-4,-5.499999970E-4,-3.987500072E-2
1.645021945E0,-3.299999982E-3,5.499999970E-4,-3.987500072E-2
1.647522328E0,-1.374999993E-4,5.499999970E-4,-3.781250119E-2
1.650022866E0,-1.099999994E-3,-5.499999970E-4,-3.781250119E-2
1.652523176E0,-1.099999994E-3,5.499999970E-4,-3.451250121E-2
1.655023544E0,-1.374999993E-4,-5.499999970E-4,-3.451250121E-2
1.657523853E0,-2.199999988E-3,5.499999970E-4,-3.451250121E-2
1.660024161E0,-1.374999993E-4,-5.499999970E-4,-3.355000168E-2
1.662524697E0,-3.299999982E-3,5.499999970E-4,-3.355000168E-2
1.665025007E0,-1.099999994E-3,-5.499999970E-4,-3.135000169E-2
1.667525395E0,-2.199999988E-3,-5.499999970E-4,-3.135000169E-2
1.670025704E0,-1.374999993E-4,-5.499999970E-4,-3.024999984E-2
1.672526241E0,-1.374999993E-4,-5.499999970E-4,-3.024999984E-2
1.675026627E0,-1.374999993E-4,-5.499999970E-4,-2.708750032E-2
1.677526930E0,-1.099999994E-3,-5.499999970E-4,-2.708750032E-2
1.680027467E0,-1.099999994E-3,-1.649999991E-3,-2.502499893E-2
1.682527776E0,9.624999948E-4,5.499999970E-4,-2.282499894E-2
1.685028159E0,-1.099999994E-3,5.499999970E-4,-1.966249943E-2
1.687528469E0,-1.374999993E-4,5.499999970E-4,-1.759999990E-2
1.690028776E0,-1.374999993E-4,-1.649999991E-3,-1.539999992E-2
1.692529390E0,-1.374999993E-4,1.649999991E-3,-1.223750040E-2
1.695029699E0,-1.374999993E-4,-5.499999970E-4,-9.074999951E-3
1.697530236E0,-1.099999994E-3,1.649999991E-3,-5.774999969E-3
1.700030532E0,-1.374999993E-4,-5.499999970E-4,-1.649999991E-3
1.702530914E0,-1.374999993E-4,5.499999970E-4,-2.612499986E-3
1.705031224E0,-1.099999994E-3,-5.499999970E-4,5.499999970E-4
1.707531760E0,-1.374999993E-4,-5.499999970E-4,5.499999970E-4
1.710032079E0,-1.374999993E-4,1.649999991E-3,2.612499986E-3
1.712532462E0,9.624999948E-4,-5.499999970E-4,5.912499968E-3
1.715032771E0,-1.099999994E-3,-1.649999991E-3,6.874999963E-3
1.717533308E0,-1.099999994E-3,-5.499999970E-4,6.874999963E-3
1.720033633E0,-1.374999993E-4,5.499999970E-4,7.974999957E-3
1.722534015E0,9.624999948E-4,-5.499999970E-4,1.017499994E-2
1.725034325E0,9.624999948E-4,-5.499999970E-4,1.113750041E-2
1.727534861E0,2.062499989E-3,-5.499999970E-4,1.333750039E-2
1.730035190E0,9.624999948E-4,-2.612499986E-3,1.443750039E-2
1.732535573E0,9.624999948E-4,1.649999991E-3,1.649999991E-2
1.735035882E0,9.624999948E-4,1.649999991E-3,1.966249943E-2
1.737536419E0,9.624999948E-4,-5.499999970E-4,2.186249942E-2
1.740036805E0,9.624999948E-4,1.649999991E-3,2.612499893E-2
1.742537127E0,-1.374999993E-4,5.499999970E-4,2.708750032E-2
1.745037664E0,2.062499989E-3,5.499999970E-4,2.818750031E-2
1.747537973E0,9.624999948E-4,5.499999970E-4,3.135000169E-2
1.750038356E0,2.062499989E-3,5.499999970E-4,3.135000169E-2
1.752538666E0,2.062499989E-3,5.499999970E-4,3.135000169E-2
1.755038973E0,9.624999948E-4,-5.499999970E-4,3.135000169E-2
1.757539510E0,2.062499989E-3,5.499999970E-4,3.244999796E-2
1.760039896E0,2.062499989E-3,5.499999970E-4,3.355000168E-2
1.762540195E0,9.624999948E-4,5.499999970E-4,3.135000169E-2
1.765040732E0,2.062499989E-3,-5.499999970E-4,3.135000169E-2
1.767541041E0,-1.374999993E-4,5.499999970E-4,3.038750030E-2
1.770041424E0,2.062499989E-3,-1.649999991E-3,3.244999796E-2
1.772541729E0,2.062499989E-3,1.649999991E-3,3.135000169E-2
1.775042265E0,9.624999948E-4,5.499999970E-4,3.135000169E-2
1.777542575E0,3.162499983E-3,5.499999970E-4,3.038750030E-2
1.780042957E0,2.062499989E-3,-5.499999970E-4,3.038750030E-2
1.782543496E0,9.624999948E-4,1.649999991E-3,3.135000169E-2
1.785043820E0,9.624999948E-4,1.649999991E-3,3.038750030E-2
1.787544202E0,9.624999948E-4,5.499999970E-4,3.135000169E-2
1.790044512E0,9.624999948E-4,5.499999970E-4,3.135000169E-2
1.792545048E0,3.162499983E-3,2.612499986E-3,3.135000169E-2
1.795045358E0,2.062499989E-3,5.499999970E-4,3.135000169E-2
1.797545741E0,9.624999948E-4,5.499999970E-4,2.818750031E-2
1.800046050E0,9.624999948E-4,5.499999970E-4,3.038750030E-2
1.802546587E0,9.624999948E-4,-1.649999991E-3,2.818750031E-2
1.805046912E0,9.624999948E-4,-5.499999970E-4,2.708750032E-2
1.807547294E0,2.062499989E-3,-5.499999970E-4,2.392499894E-2
1.810047604E0,9.624999948E-4,5.499999970E-4,2.186249942E-2
1.812548140E0,-1.374999993E-4,-5.499999970E-4,2.186249942E-2
1.815048459E0,-1.374999993E-4,5.499999970E-4,1.649999991E-2
1.817548842E0,9.624999948E-4,5.499999970E-4,1.443750039E-2
1.820049151E0,-1.374999993E-4,1.649999991E-3,1.333750039E-2
1.822549688E0,9.624999948E-4,-5.499999970E-4,1.223750040E-2
1.825050074E0,9.624999948E-4,5.499999970E-4,1.017499994E-2
1.827550397E0,-1.374999993E-4,-1.649999991E-3,1.017499994E-2
1.830050934E0,-1.374999993E-4,5.499999970E-4,6.874999963E-3
1.832551243E0,3.162499983E-3,5.499999970E-4,6.874999963E-3
1.835051626E0,2.062499989E-3,-1.649999991E-3,5.912499968E-3
1.837551936E0,9.624999948E-4,-5.499999970E-4,5.912499968E-3
1.840052476E0,-1.374999993E-4,5.499999970E-4,4.812499974E-3
1.842552786E0,9.624999948E-4,5.499999970E-4,3.712499980E-3
1.845053168E0,9.624999948E-4,-5.499999970E-4,2.612499986E-3
1.847553478E0,9.624999948E-4,5.499999970E-4,-1.649999991E-3
1.850054015E0,-1.099999994E-3,-1.649999991E-3,-1.649999991E-3
1.852554324E0,-1.374999993E-4,5.499999970E-4,-4.812499974E-3
1.855054707E0,-1.374999993E-4,5.499999970E-4,-5.774999969E-3
1.857555017E0,-1.374999993E-4,5.499999970E-4,-1.003750041E-2
1.860055568E0,-1.099999994E-3,1.649999991E-3,-1.113750041E-2
1.862555878E0,-1.374999993E-4,-1.649999991E-3,-1.223750040E-2
1.865056260E0,-1.374999993E-4,-5.499999970E-4,-1.649999991E-2
1.867556570E0,-1.374999993E-4,-5.499999970E-4,-1.649999991E-2
1.870057183E0,9.624999948E-4,-5.499999970E-4,-1.649999991E-2
1.872557493E0,-1.374999993E-4,1.649999991E-3,-1.759999990E-2
1.875057801E0,-1.099999994E-3,-5.499999970E-4,-1.856249943E-2
1.877558337E0,-1.099999994E-3,-5.499999970E-4,-1.856249943E-2
1.880058647E0,-1.374999993E-4,-1.649999991E-3,-1.966249943E-2
1.882559015E0,-1.099999994E-3,-5.499999970E-4,-2.076249942E-2
1.885059324E0,-1.374999993E-4,-5.499999970E-4,-1.966249943E-2
1.887559861E0,-1.099999994E-3,5.499999970E-4,-2.186249942E-2
1.890060247E0,-1.099999994E-3,5.499999970E-4,-1.966249943E-2
1.892560550E0,-1.374999993E-4,5.499999970E-4,-1.966249943E-2
1.895061087E0,-1.374999993E-4,-5.499999970E-4,-1.966249943E-2
1.897561396E0,-1.374999993E-4,5.499999970E-4,-2.076249942E-2
1.900061779E0,-1.374999993E-4,5.499999970E-4,-2.186249942E-2
1.902562085E0,-1.099999994E-3,-5.499999970E-4,-2.186249942E-2
1.905062621E0,-1.374999993E-4,-1.649999991E-3,-2.282499894E-2
1.907562931E0,-1.099999994E-3,-5.499999970E-4,-2.392499894E-2
1.910063239E0,-1.099999994E-3,1.649999991E-3,-2.392499894E-2
1.912563621E0,-1.374999993E-4,5.499999970E-4,-2.502499893E-2
1.915064164E0,-2.199999988E-3,5.499999970E-4,-2.392499894E-2
1.917564473E0,-2.199999988E-3,-5.499999970E-4,-2.392499894E-2
1.920064856E0,-1.099999994E-3,5.499999970E-4,-2.282499894E-2
1.922565166E0,-1.374999993E-4,-1.649999991E-3,-2.186249942E-2
1.925065697E0,-1.374999993E-4,5.499999970E-4,-2.076249942E-2
1.927566007E0,-1.099999994E-3,5.499999970E-4,-2.076249942E-2
1.930066389E0,-1.374999993E-4,5.499999970E-4,-1.649999991E-2
1.932566699E0,-1.099999994E-3,-1.649999991E-3,-1.429999992E-2
1.935067236E0,9.624999948E-4,-5.499999970E-4,-1.429999992E-2
1.937567622E0,-1.374999993E-4,5.499999970E-4,-1.223750040E-2
1.940067930E0,9.624999948E-4,5.499999970E-4,-1.223750040E-2
1.942568466E0,-1.099999994E-3,-1.649999991E-3,-1.003750041E-2
1.945068796E0,-1.374999993E-4,1.649999991E-3,-1.003750041E-2
1.947569179E0,-1.374999993E-4,-5.499999970E-4,-7.974999957E-3
1.950069488E0,-1.099999994E-3,-1.649999991E-3,-5.774999969E-3
1.952570025E0,-1.374999993E-4,-1.649999991E-3,-7.974999957E-3
1.955070325E0,-1.374999993E-4,5.499999970E-4,-6.874999963E-3
1.957570707E0,-1.099999994E-3,5.499999970E-4,-5.774999969E-3
1.960071246E0,-1.099999994E-3,-5.499999970E-4,-5.774999969E-3
1.962571555E0,-1.099999994E-3,-5.499999970E-4,-6.874999963E-3
1.965071938E0,-1.099999994E-3,5.499999970E-4,-2.612499986E-3
1.967572253E0,9.624999948E-4,-2.612499986E-3,-1.649999991E-3
1.970072560E0,9.624999948E-4,2.612499986E-3,-5.499999970E-4
1.972573097E0,-1.099999994E-3,5.499999970E-4,1.649999991E-3
1.975073407E0,9.624999948E-4,5.499999970E-4,2.612499986E-3
1.977573774E0,9.624999948E-4,5.499999970E-4,4.812499974E-3
1.980074084E0,9.624999948E-4,-5.499999970E-4,6.874999963E-3
1.982574620E0,9.624999948E-4,-5.499999970E-4,7.974999957E-3
1.985075007E0,9.624999948E-4,-5.499999970E-4,1.017499994E-2
1.987575315E0,2.062499989E-3,5.499999970E-4,1.017499994E-2
1.990075851E0,-1.374999993E-4,5.499999970E-4,1.017499994E-2
1.992576161E0,2.062499989E-3,5.499999970E-4,1.113750041E-2
1.995076543E0,9.624999948E-4,-5.499999970E-4,1.113750041E-2
1.997576853E0,-1.374999993E-4,5.499999970E-4,1.223750040E-2
2.000077400E0,9.624999948E-4,5.499999970E-4,1.333750039E-2
2.002577786E0,9.624999948E-4,5.499999970E-4,1.017499994E-2
2.005078094E0,9.624999948E-4,-5.499999970E-4,1.113750041E-2
2.007578630E0,-1.374999993E-4,5.499999970E-4,1.017499994E-2
2.010078940E0,9.624999948E-4,-5.499999970E-4,1.113750041E-2
2.012579323E0,9.624999948E-4,-5.499999970E-4,9.074999951E-3
2.015079632E0,9.624999948E-4,5.499999970E-4,1.223750040E-2
2.017580169E0,9.624999948E-4,-1.649999991E-3,1.113750041E-2
2.020080484E0,9.624999948E-4,5.499999970E-4,1.223750040E-2
2.022580866E0,9.624999948E-4,-2.612499986E-3,1.113750041E-2
2.025081176E0,9.624999948E-4,5.499999970E-4,1.223750040E-2
2.027581712E0,2.062499989E-3,-5.499999970E-4,1.333750039E-2
2.030082022E0,-1.374999993E-4,5.499999970E-4,1.333750039E-2
2.032582390E0,2.062499989E-3,-5.499999970E-4,1.333750039E-2
2.035082699E0,9.624999948E-4,1.649999991E-3,1.223750040E-2
2.037583236E0,2.062499989E-3,-5.499999970E-4,1.223750040E-2
2.040083546E0,9.624999948E-4,5.499999970E-4,1.017499994E-2
2.042583943E0,2.062499989E-3,-5.499999970E-4,1.113750041E-2
2.045084253E0,9.624999948E-4,-5.499999970E-4,9.074999951E-3
2.047584789E0,9.624999948E-4,-5.499999970E-4,7.974999957E-3
2.050085176E0,-1.374999993E-4,-5.499999970E-4,7.974999957E-3
2.052585469E0,-1.374999993E-4,-5.499999970E-4,6.874999963E-3
2.055086005E0,9.624999948E-4,5.499999970E-4,4.812499974E-3
2.057586315E0,-1.374999993E-4,-5.499999970E-4,5.912499968E-3
2.060086622E0,-1.099999994E-3,5.499999970E-4,4.812499974E-3
2.062587005E0,9.624999948E-4,-5.499999970E-4,1.649999991E-3
2.065087310E0,9.624999948E-4,5.499999970E-4,1.649999991E-3
2.067587846E0,9.624999948E-4,1.649999991E-3,2.612499986E-3
2.070088233E0,-1.099999994E-3,1.649999991E-3,3.712499980E-3
2.072588769E0,-1.374999993E-4,5.499999970E-4,5.499999970E-4
2.075089055E0,-1.374999993E-4,-5.499999970E-4,5.499999970E-4
2.077589363E0,9.624999948E-4,5.499999970E-4,2.612499986E-3
2.080089745E0,9.624999948E-4,-5.499999970E-4,5.499999970E-4
2.082590055E0,9.624999948E-4,5.499999970E-4,-1.649999991E-3
2.085090597E0,2.062499989E-3,-5.499999970E-4,-1.649999991E-3
2.087590906E0,-1.374999993E-4,5.499999970E-4,-5.774999969E-3
2.090091289E0,-1.374999993E-4,-5.499999970E-4,-3.712499980E-3
2.092591827E0,-1.099999994E-3,-1.649999991E-3,-5.774999969E-3
2.095092137E0,-1.374999993E-4,-5.499999970E-4,-5.774999969E-3
2.097592535E0,-1.374999993E-4,1.649999991E-3,-9.074999951E-3
2.100092844E0,-1.374999993E-4,-5.499999970E-4,-7.974999957E-3
2.102593381E0,-1.374999993E-4,-5.499999970E-4,-1.223750040E-2
2.105093691E0,9.624999948E-4,-5.499999970E-4,-1.333750039E-2
2.107594073E0,-1.099999994E-3,5.499999970E-4,-1.223750040E-2
2.110094382E0,-1.374999993E-4,5.499999970E-4,-1.429999992E-2
2.112594918E0,-1.374999993E-4,5.499999970E-4,-1.333750039E-2
2.115095305E0,-1.374999993E-4,-1.649999991E-3,-1.539999992E-2
2.117595613E0,9.624999948E-4,5.499999970E-4,-1.539999992E-2
2.120096145E0,-1.374999993E-4,5.499999970E-4,-1.539999992E-2
2.122596455E0,-1.374999993E-4,-5.499999970E-4,-1.649999991E-2
2.125096837E0,-1.099999994E-3,5.499999970E-4,-1.429999992E-2
2.127597147E0,-1.099999994E-3,1.649999991E-3,-1.649999991E-2
2.130097440E0,-1.374999993E-4,-5.499999970E-4,-1.856249943E-2
2.132597976E0,-1.099999994E-3,-5.499999970E-4,-1.856249943E-2
2.135098363E0,-1.099999994E-3,5.499999970E-4,-1.966249943E-2
2.137598671E0,-1.374999993E-4,5.499999970E-4,-2.186249942E-2
2.140099198E0,-2.199999988E-3,-5.499999970E-4,-2.186249942E-2
2.142599508E0,-1.099999994E-3,5.499999970E-4,-2.282499894E-2
2.145099890E0,-1.099999994E-3,5.499999970E-4,-2.392499894E-2
2.147600200E0,-2.199999988E-3,-1.649999991E-3,-2.392499894E-2
2.150100741E0,-1.374999993E-4,5.499999970E-4,-2.282499894E-2
2.152601050E0,-1.099999994E-3,-2.612499986E-3,-2.392499894E-2
2.155101433E0,-1.374999993E-4,-5.499999970E-4,-2.612499893E-2
2.157601971E0,-1.099999994E-3,-5.499999970E-4,-2.612499893E-2
2.160102291E0,-1.374999993E-4,5.499999970E-4,-2.392499894E-2
2.162602674E0,-1.099999994E-3,-5.499999970E-4,-2.612499893E-2
2.165102983E0,-1.374999993E-4,5.499999970E-4,-2.392499894E-2
2.167603520E0,-1.374999993E-4,5.499999970E-4,-2.282499894E-2
2.170103830E0,-1.099999994E-3,-5.499999970E-4,-2.282499894E-2
2.172604193E0,-1.374999993E-4,-5.499999970E-4,-2.282499894E-2
2.175104503E0,-1.374999993E-4,1.649999991E-3,-2.282499894E-2
2.177605039E0,-1.099999994E-3,5.499999970E-4,-2.282499894E-2
2.180105426E0,9.624999948E-4,5.499999970E-4,-2.076249942E-2
2.182605739E0,-1.099999994E-3,-5.499999970E-4,-2.076249942E-2
2.185106046E0,-1.099999994E-3,5.499999970E-4,-2.392499894E-2
2.187606583E0,-1.099999994E-3,-5.499999970E-4,-2.186249942E-2
2.190106892E0,-1.099999994E-3,5.499999970E-4,-2.282499894E-2
2.192607279E0,-1.099999994E-3,-5.499999970E-4,-2.282499894E-2
2.195107589E0,-1.374999993E-4,-5.499999970E-4,-2.186249942E-2
2.197608125E0,-1.099999994E-3,5.499999970E-4,-2.282499894E-2
2.200108435E0,-1.374999993E-4,-5.499999970E-4,-1.759999990E-2
2.202608818E0,-1.099999994E-3,-5.499999970E-4,-1.759999990E-2
2.205109371E0,-1.374999993E-4,5.499999970E-4,-1.759999990E-2
2.207609681E0,-1.374999993E-4,-5.499999970E-4,-1.759999990E-2
2.210110063E0,-1.374999993E-4,5.499999970E-4,-1.539999992E-2
2.212610373E0,-1.374999993E-4,5.499999970E-4,-1.333750039E-2
2.215110910E0,9.624999948E-4,-5.499999970E-4,-1.113750041E-2
2.217611219E0,-1.374999993E-4,5.499999970E-4,-1.003750041E-2
2.220111602E0,-1.099999994E-3,-5.499999970E-4,-9.074999951E-3
2.222611912E0,-1.374999993E-4,5.499999970E-4,-7.974999957E-3
2.225112448E0,9.624999948E-4,-5.499999970E-4,-7.974999957E-3
2.227612835E0,-1.374999993E-4,5.499999970E-4,-7.974999957E-3
2.230113142E0,-1.374999993E-4,5.499999970E-4,-4.812499974E-3
2.232613450E0,-1.374999993E-4,5.499999970E-4,-2.612499986E-3
2.235113982E0,-1.374999993E-4,5.499999970E-4,-2.612499986E-3
2.237614291E0,-1.374999993E-4,5.499999970E-4,-2.612499986E-3
2.240114674E0,9.624999948E-4,5.499999970E-4,-1.649999991E-3
2.242614984E0,2.062499989E-3,5.499999970E-4,-1.649999991E-3
2.245115611E0,9.624999948E-4,-5.499999970E-4,1.649999991E-3
2.247615921E0,-1.374999993E-4,1.649999991E-3,1.649999991E-3
2.250116228E0,9.624999948E-4,-5.499999970E-4,3.712499980E-3
2.252616765E0,-1.374999993E-4,-5.499999970E-4,5.912499968E-3
2.255117055E0,-1.374999993E-4,5.499999970E-4,6.874999963E-3
2.257617438E0,9.624999948E-4,-5.499999970E-4,4.812499974E-3
2.260117748E0,-1.374999993E-4,5.499999970E-4,6.874999963E-3
2.262618284E0,9.624999948E-4,1.649999991E-3,7.974999957E-3
2.265118594E0,9.624999948E-4,1.649999991E-3,1.017499994E-2
2.267618977E0,2.062499989E-3,1.649999991E-3,1.113750041E-2
2.270119286E0,-1.374999993E-4,5.499999970E-4,1.223750040E-2
2.272619823E0,2.062499989E-3,5.499999970E-4,1.223750040E-2
2.275120132E0,-1.374999993E-4,1.649999991E-3,1.443750039E-2
2.277620515E0,-1.374999993E-4,1.649999991E-3,1.539999992E-2
2.280120834E0,9.624999948E-4,-5.499999970E-4,1.333750039E-2
2.282621370E0,-1.374999993E-4,1.649999991E-3,1.443750039E-2
2.285121680E0,9.624999948E-4,-5.499999970E-4,1.333750039E-2
2.287622063E0,-1.374999993E-4,5.499999970E-4,1.443750039E-2
2.290122592E0,-1.374999993E-4,5.499999970E-4,1.443750039E-2
2.292622902E0,9.624999948E-4,-5.499999970E-4,1.333750039E-2
2.295123284E0,2.062499989E-3,5.499999970E-4,1.443750039E-2
2.297623594E0,9.624999948E-4,1.649999991E-3,1.443750039E-2
2.300124145E0,2.062499989E-3,-5.499999970E-4,1.443750039E-2
2.302624454E0,9.624999948E-4,5.499999970E-4,1.649999991E-2
2.305124837E0,9.624999948E-4,-5.499999970E-4,1.649999991E-2
2.307625147E0,9.624999948E-4,5.499999970E-4,1.443750039E-2
2.310125683E0,9.624999948E-4,-5.499999970E-4,1.539999992E-2
2.312626064E0,-1.374999993E-4,5.499999970E-4,1.539999992E-2
2.315126371E0,9.624999948E-4,-5.499999970E-4,1.539999992E-2
2.317626908E0,-1.374999993E-4,1.649999991E-3,1.333750039E-2
2.320127217E0,-1.374999993E-4,5.499999970E-4,1.223750040E-2
2.322627615E0,-1.374999993E-4,1.649999991E-3,1.333750039E-2
2.325127925E0,9.624999948E-4,1.649999991E-3,1.017499994E-2
2.327628461E0,-1.374999993E-4,5.499999970E-4,9.074999951E-3
2.330128848E0,-1.374999993E-4,2.612499986E-3,9.074999951E-3
2.332629170E0,-1.374999993E-4,5.499999970E-4,6.874999963E-3
2.335129706E0,2.062499989E-3,1.649999991E-3,6.874999963E-3
2.337630016E0,-1.374999993E-4,1.649999991E-3,5.912499968E-3
2.340130323E0,-1.099999994E-3,1.649999991E-3,5.912499968E-3
2.342630706E0,-1.374999993E-4,1.649999991E-3,2.612499986E-3
2.345131016E0,9.624999948E-4,5.499999970E-4,3.712499980E-3
2.347631552E0,-1.099999994E-3,5.499999970E-4,2.612499986E-3
2.350131862E0,-1.374999993E-4,-5.499999970E-4,-5.499999970E-4
2.352632245E0,-1.374999993E-4,1.649999991E-3,-1.649999991E-3
2.355132764E0,-1.374999993E-4,5.499999970E-4,-5.499999970E-4
2.357633074E0,9.624999948E-4,5.499999970E-4,-1.649999991E-3
2.360133456E0,-1.374999993E-4,5.499999970E-4,-3.712499980E-3
2.362633766E0,-1.374999993E-4,5.499999970E-4,-2.612499986E-3
2.365134313E0,-1.374999993E-4,-5.499999970E-4,-5.774999969E-3
2.367634622E0,9.624999948E-4,5.499999970E-4,-6.874999963E-3
2.370135005E0,9.624999948E-4,5.499999970E-4,-7.974999957E-3
2.372635315E0,-1.374999993E-4,5.499999970E-4,-7.974999957E-3
2.375135841E0,-1.374999993E-4,1.649999991E-3,-1.003750041E-2
2.377636228E0,-1.374999993E-4,-1.649999991E-3,-1.113750041E-2
2.380136535E0,-1.099999994E-3,1.649999991E-3,-1.333750039E-2
2.382637072E0,9.624999948E-4,-5.499999970E-4,-1.113750041E-2
2.385137381E0,-1.374999993E-4,5.499999970E-4,-1.333750039E-2
2.387637754E0,9.624999948E-4,5.499999970E-4,-1.539999992E-2
2.390138064E0,-1.374999993E-4,-2.612499986E-3,-1.539999992E-2
2.392638600E0,-2.199999988E-3,-5.499999970E-4,-1.539999992E-2
2.395138910E0,9.624999948E-4,5.499999970E-4,-1.759999990E-2
2.397639298E0,9.624999948E-4,-5.499999970E-4,-1.759999990E-2
2.400139607E0,-2.199999988E-3,5.499999970E-4,-1.759999990E-2
2.402640144E0,-1.099999994E-3,5.499999970E-4,-1.856249943E-2
2.405140453E0,9.624999948E-4,-5.499999970E-4,-1.856249943E-2
2.407640836E0,-1.374999993E-4,-5.499999970E-4,-1.966249943E-2
2.410141146E0,-1.099999994E-3,-5.499999970E-4,-1.856249943E-2
2.412641682E0,-1.374999993E-4,-5.499999970E-4,-1.966249943E-2
2.415141992E0,-1.099999994E-3,1.649999991E-3,-1.966249943E-2
2.417642370E0,-2.199999988E-3,5.499999970E-4,-2.186249942E-2
2.420142908E0,-2.199999988E-3,5.499999970E-4,-1.966249943E-2
2.422643218E0,-1.374999993E-4,5.499999970E-4,-2.076249942E-2
2.425143600E0,9.624999948E-4,5.499999970E-4,-1.966249943E-2
2.427643910E0,-1.374999993E-4,5.499999970E-4,-2.076249942E-2
2.430144466E0,-1.374999993E-4,5.499999970E-4,-2.076249942E-2
2.432644775E0,2.062499989E-3,5.499999970E-4,-1.759999990E-2
2.435145158E0,-1.099999994E-3,-5.499999970E-4,-1.856249943E-2
2.437645468E0,-1.099999994E-3,5.499999970E-4,-1.759999990E-2
2.440145995E0,9.624999948E-4,5.499999970E-4,-1.759999990E-2
2.442646382E0,-1.099999994E-3,-5.499999970E-4,-1.539999992E-2
2.445146689E0,9.624999948E-4,-1.649999991E-3,-1.429999992E-2
2.447647226E0,-1.374999993E-4,-5.499999970E-4,-1.539999992E-2
2.450147535E0,-1.374999993E-4,5.499999970E-4,-1.333750039E-2
2.452647918E0,9.624999948E-4,-2.612499986E-3,-1.333750039E-2
2.455148228E0,9.624999948E-4,-5.499999970E-4,-1.113750041E-2
2.457648536E0,-1.099999994E-3,-1.649999991E-3,-1.003750041E-2
2.460149077E0,-1.099999994E-3,-5.499999970E-4,-9.074999951E-3
2.462649464E0,9.624999948E-4,5.499999970E-4,-9.074999951E-3
2.465149771E0,9.624999948E-4,-1.649999991E-3,-6.874999963E-3
2.467650308E0,9.624999948E-4,1.649999991E-3,-7.974999957E-3
2.470150612E0,-1.099999994E-3,-5.499999970E-4,-4.812499974E-3
2.472650995E0,-1.374999993E-4,5.499999970E-4,-5.774999969E-3
2.475151305E0,-1.374999993E-4,-5.499999970E-4,-3.712499980E-3
2.477651841E0,9.624999948E-4,-5.499999970E-4,-3.712499980E-3
2.480152151E0,9.624999948E-4,-5.499999970E-4,-1.649999991E-3
2.482652544E0,-1.374999993E-4,5.499999970E-4,-5.499999970E-4
2.485153082E0,9.624999948E-4,1.649999991E-3,5.499999970E-4
2.487653392E0,2.062499989E-3,5.499999970E-4,2.612499986E-3
2.490153774E0,-1.374999993E-4,5.499999970E-4,3.712499980E-3
2.492654065E0,-1.374999993E-4,-5.499999970E-4,2.612499986E-3
2.495154602E0,9.624999948E-4,1.649999991E-3,5.912499968E-3
2.497654911E0,-1.374999993E-4,-1.649999991E-3,6.874999963E-3
2.500155294E0,-1.374999993E-4,-5.499999970E-4,6.874999963E-3
2.502655585E0,-1.374999993E-4,-5.499999970E-4,6.874999963E-3
2.505156121E0,-1.374999993E-4,5.499999970E-4,1.017499994E-2
2.507656431E0,-1.374999993E-4,-5.499999970E-4,9.074999951E-3
2.510156813E0,-1.374999993E-4,1.649999991E-3,9.074999951E-3
2.512657123E0,9.624999948E-4,5.499999970E-4,1.017499994E-2
2.515157673E0,9.624999948E-4,5.499999970E-4,1.223750040E-2
2.517657983E0,9.624999948E-4,-1.649999991E-3,1.443750039E-2
2.520158366E0,9.624999948E-4,-5.499999970E-4,1.113750041E-2
2.522658676E0,-1.374999993E-4,1.649999991E-3,1.333750039E-2
2.525159222E0,9.624999948E-4,-5.499999970E-4,1.869999990E-2
2.527659609E0,9.624999948E-4,1.649999991E-3,1.649999991E-2
2.530159916E0,9.624999948E-4,5.499999970E-4,1.649999991E-2
2.532660453E0,2.062499989E-3,-5.499999970E-4,1.759999990E-2
2.535160742E0,9.624999948E-4,-5.499999970E-4,1.759999990E-2
2.537661125E0,-1.374999993E-4,5.499999970E-4,1.869999990E-2
2.540161435E0,2.062499989E-3,-5.499999970E-4,1.869999990E-2
2.542661971E0,2.062499989E-3,-1.649999991E-3,1.966249943E-2
2.545162286E0,9.624999948E-4,-5.499999970E-4,1.966249943E-2
2.547662669E0,9.624999948E-4,5.499999970E-4,1.869999990E-2
2.550163207E0,9.624999948E-4,-5.499999970E-4,1.966249943E-2
2.552663517E0,-1.374999993E-4,-1.649999991E-3,1.966249943E-2
2.555163904E0,2.062499989E-3,-1.649999991E-3,1.649999991E-2
2.557664214E0,2.062499989E-3,-5.499999970E-4,1.759999990E-2
2.560164751E0,2.062499989E-3,5.499999970E-4,1.869999990E-2
2.562665060E0,-1.099999994E-3,5.499999970E-4,1.759999990E-2
2.565165368E0,-1.374999993E-4,-5.499999970E-4,1.869999990E-2
2.567665761E0,9.624999948E-4,5.499999970E-4,1.539999992E-2
2.570166299E0,2.062499989E-3,-1.649999991E-3,1.759999990E-2
2.572666609E0,9.624999948E-4,5.499999970E-4,1.649999991E-2
2.575166991E0,3.162499983E-3,-5.499999970E-4,1.539999992E-2
2.577667291E0,9.624999948E-4,5.499999970E-4,1.443750039E-2
2.580167827E0,9.624999948E-4,-5.499999970E-4,1.539999992E-2
2.582668137E0,9.624999948E-4,-5.499999970E-4,1.443750039E-2
2.585168520E0,-1.374999993E-4,5.499999970E-4,1.539999992E-2
2.587668830E0,-1.374999993E-4,-5.499999970E-4,1.223750040E-2
2.590169371E0,9.624999948E-4,-1.649999991E-3,1.333750039E-2
2.592669758E0,9.624999948E-4,-5.499999970E-4,1.223750040E-2
2.595170065E0,-1.099999994E-3,1.649999991E-3,1.017499994E-2
2.597670602E0,-1.374999993E-4,-5.499999970E-4,9.074999951E-3
2.600170911E0,-1.374999993E-4,5.499999970E-4,6.874999963E-3
2.602671294E0,-1.099999994E-3,-5.499999970E-4,6.874999963E-3
2.605171604E0,-1.374999993E-4,1.649999991E-3,3.712499980E-3
2.607672140E0,9.624999948E-4,-5.499999970E-4,6.874999963E-3
2.610172459E0,9.624999948E-4,-5.499999970E-4,2.612499986E-3
2.612672842E0,-1.374999993E-4,5.499999970E-4,3.712499980E-3
2.615173380E0,-1.374999993E-4,-5.499999970E-4,3.712499980E-3
2.617673690E0,-1.099999994E-3,-1.649999991E-3,1.649999991E-3
2.620174072E0,9.624999948E-4,-1.649999991E-3,1.649999991E-3
2.622674373E0,-1.374999993E-4,-5.499999970E-4,5.499999970E-4
2.625174910E0,9.624999948E-4,-5.499999970E-4,-1.649999991E-3
2.627675219E0,-1.099999994E-3,-5.499999970E-4,-5.499999970E-4
2.630175527E0,9.624999948E-4,1.649999991E-3,-3.712499980E-3
2.632675905E0,9.624999948E-4,-5.499999970E-4,-2.612499986E-3
2.635176443E0,-1.374999993E-4,-5.499999970E-4,-4.812499974E-3
2.637676753E0,-1.374999993E-4,-5.499999970E-4,-5.774999969E-3
2.640177135E0,9.624999948E-4,5.499999970E-4,-7.974999957E-3
2.642677440E0,9.624999948E-4,-5.499999970E-4,-1.003750041E-2
2.645177976E0,9.624999948E-4,-5.499999970E-4,-1.113750041E-2
2.647678286E0,9.624999948E-4,-1.649999991E-3,-1.223750040E-2
2.650178594E0,-1.099999994E-3,-5.499999970E-4,-1.223750040E-2
2.652678977E0,-1.374999993E-4,-5.499999970E-4,-1.333750039E-2
2.655179291E0,-1.099999994E-3,5.499999970E-4,-1.429999992E-2
2.657679905E0,-1.374999993E-4,-1.649999991E-3,-1.429999992E-2
2.660180214E0,-1.099999994E-3,5.499999970E-4,-1.429999992E-2
2.662680751E0,-1.374999993E-4,-5.499999970E-4,-1.429999992E-2
2.665181074E0,2.062499989E-3,5.499999970E-4,-1.539999992E-2
2.667681382E0,-1.099999994E-3,5.499999970E-4,-1.333750039E-2
2.670181765E0,9.624999948E-4,5.499999970E-4,-1.539999992E-2
2.672682074E0,-1.099999994E-3,5.499999970E-4,-1.649999991E-2
2.675182611E0,-1.099999994E-3,5.499999970E-4,-1.759999990E-2
2.677682998E0,-1.374999993E-4,-5.499999970E-4,-1.429999992E-2
2.680183305E0,-1.374999993E-4,-1.649999991E-3,-1.759999990E-2
2.682683842E0,9.624999948E-4,5.499999970E-4,-1.649999991E-2
2.685184151E0,-1.099999994E-3,1.649999991E-3,-1.759999990E-2
2.687684520E0,-1.374999993E-4,1.649999991E-3,-1.759999990E-2
2.690184830E0,-1.374999993E-4,-1.649999991E-3,-1.856249943E-2
2.692685366E0,-1.374999993E-4,5.499999970E-4,-1.966249943E-2
2.695185676E0,-1.099999994E-3,-5.499999970E-4,-1.856249943E-2
2.697686049E0,9.624999948E-4,-5.499999970E-4,-1.759999990E-2
2.700186358E0,-2.199999988E-3,-1.649999991E-3,-1.759999990E-2
2.702686895E0,-1.099999994E-3,5.499999970E-4,-1.649999991E-2
2.705187281E0,9.624999948E-4,-5.499999970E-4,-1.759999990E-2
2.707687589E0,-1.099999994E-3,-5.499999970E-4,-1.649999991E-2
2.710188139E0,-1.099999994E-3,-5.499999970E-4,-1.649999991E-2
2.712688449E0,-1.099999994E-3,1.649999991E-3,-1.429999992E-2
2.715188757E0,9.624999948E-4,-5.499999970E-4,-1.539999992E-2
2.717689140E0,-1.374999993E-4,5.499999970E-4,-1.223750040E-2
2.720189473E0,-1.374999993E-4,5.499999970E-4,-1.223750040E-2
2.722690010E0,-1.374999993E-4,1.649999991E-3,-9.074999951E-3
2.725190396E0,-1.099999994E-3,5.499999970E-4,-1.113750041E-2
2.727690704E0,-1.374999993E-4,5.499999970E-4,-1.003750041E-2
2.730191240E0,9.624999948E-4,-5.499999970E-4,-7.974999957E-3
2.732691546E0,-1.374999993E-4,5.499999970E-4,-9.074999951E-3
2.735191929E0,-1.374999993E-4,5.499999970E-4,-9.074999951E-3
2.737692238E0,-1.374999993E-4,1.649999991E-3,-7.974999957E-3
2.740192775E0,9.624999948E-4,-5.499999970E-4,-1.003750041E-2
2.742693089E0,-1.374999993E-4,-2.612499986E-3,-7.974999957E-3
2.745193471E0,-1.099999994E-3,-5.499999970E-4,-7.974999957E-3
2.747694010E0,-1.099999994E-3,-1.649999991E-3,-5.774999969E-3
2.750194319E0,9.624999948E-4,-5.499999970E-4,-6.874999963E-3
2.752694702E0,2.062499989E-3,-5.499999970E-4,-5.774999969E-3
2.755195012E0,-1.099999994E-3,5.499999970E-4,-3.712499980E-3
2.757695548E0,-1.374999993E-4,5.499999970E-4,-2.612499986E-3
2.760195858E0,9.624999948E-4,5.499999970E-4,-1.649999991E-3
2.762696241E0,-1.099999994E-3,5.499999970E-4,1.649999991E-3
2.765196560E0,-1.374999993E-4,5.499999970E-4,2.612499986E-3
2.767697097E0,-1.374999993E-4,1.649999991E-3,2.612499986E-3
2.770197406E0,-1.374999993E-4,1.649999991E-3,4.812499974E-3
2.772697789E0,9.624999948E-4,5.499999970E-4,4.812499974E-3
2.775198089E0,2.062499989E-3,5.499999970E-4,3.712499980E-3
2.777698625E0,9.624999948E-4,1.649999991E-3,3.712499980E-3
2.780198935E0,3.162499983E-3,-5.499999970E-4,4.812499974E-3
2.782699318E0,-1.374999993E-4,5.499999970E-4,2.612499986E-3
2.785199627E0,-1.099999994E-3,5.499999970E-4,4.812499974E-3
2.787700164E0,-1.374999993E-4,1.649999991E-3,3.712499980E-3
2.790200550E0,-1.374999993E-4,-5.499999970E-4,3.712499980E-3
2.792700858E0,9.624999948E-4,1.649999991E-3,4.812499974E-3
2.795201409E0,-1.374999993E-4,-5.499999970E-4,4.812499974E-3
2.797701719E0,9.624999948E-4,1.649999991E-3,4.812499974E-3
2.800202102E0,9.624999948E-4,-1.649999991E-3,3.712499980E-3
2.802702411E0,-1.099999994E-3,-5.499999970E-4,5.912499968E-3
2.805202953E0,-1.374999993E-4,-1.649999991E-3,5.912499968E-3
2.807703263E0,-1.374999993E-4,1.649999991E-3,6.874999963E-3
2.810203645E0,9.624999948E-4,5.499999970E-4,6.874999963E-3
2.812704184E0,-1.374999993E-4,1.649999991E-3,9.074999951E-3
2.815204497E0,9.624999948E-4,1.649999991E-3,1.017499994E-2
2.817704805E0,9.624999948E-4,5.499999970E-4,7.974999957E-3
2.820205188E0,-1.374999993E-4,-5.499999970E-4,1.113750041E-2
2.822705497E0,9.624999948E-4,5.499999970E-4,9.074999951E-3
2.825206034E0,9.624999948E-4,-5.499999970E-4,9.074999951E-3
2.827706339E0,9.624999948E-4,5.499999970E-4,6.874999963E-3
2.830206721E0,9.624999948E-4,5.499999970E-4,7.974999957E-3
2.832707260E0,9.624999948E-4,5.499999970E-4,7.974999957E-3
2.835207569E0,-1.374999993E-4,-5.499999970E-4,5.912499968E-3
2.837707952E0,9.624999948E-4,-5.499999970E-4,4.812499974E-3
2.840208262E0,-1.374999993E-4,5.499999970E-4,6.874999963E-3
2.842708798E0,-1.374999993E-4,5.499999970E-4,6.874999963E-3
2.845209108E0,-1.374999993E-4,-5.499999970E-4,3.712499980E-3
2.847709482E0,-1.374999993E-4,-5.499999970E-4,3.712499980E-3
2.850209791E0,9.624999948E-4,1.649999991E-3,3.712499980E-3
2.852710328E0,-1.374999993E-4,-1.649999991E-3,3.712499980E-3
2.855210714E0,-1.374999993E-4,-5.499999970E-4,2.612499986E-3
2.857711027E0,9.624999948E-4,1.649999991E-3,6.874999963E-3
2.860211563E0,-1.374999993E-4,5.499999970E-4,5.912499968E-3
2.862711873E0,-1.374999993E-4,5.499999970E-4,5.912499968E-3
2.865212256E0,9.624999948E-4,5.499999970E-4,5.912499968E-3
2.867712565E0,9.624999948E-4,5.499999970E-4,4.812499974E-3
2.870213102E0,-1.374999993E-4,5.499999970E-4,4.812499974E-3
2.872713412E0,-1.374999993E-4,-5.499999970E-4,2.612499986E-3
2.875213794E0,-1.374999993E-4,-5.499999970E-4,1.649999991E-3
2.877714104E0,-1.374999993E-4,-5.499999970E-4,2.612499986E-3
2.880214630E0,9.624999948E-4,1.649999991E-3,-5.499999970E-4
2.882714940E0,9.624999948E-4,-5.499999970E-4,-1.649999991E-3
2.885215323E0,9.624999948E-4,1.649999991E-3,-2.612499986E-3
2.887715632E0,-1.099999994E-3,-5.499999970E-4,-3.712499980E-3
2.890216150E0,9.624999948E-4,-5.499999970E-4,-4.812499974E-3
2.892716460E0,-1.374999993E-4,5.499999970E-4,-4.812499974E-3
2.895216842E0,9.624999948E-4,-5.499999970E-4,-2.612499986E-3
2.897717381E0,-1.374999993E-4,5.499999970E-4,-4.812499974E-3
2.900217690E0,-1.374999993E-4,-1.649999991E-3,-3.712499980E-3
2.902718073E0,-1.374999993E-4,1.649999991E-3,-3.712499980E-3
2.905218383E0,-1.099999994E-3,1.649999991E-3,-2.612499986E-3
2.907718919E0,9.624999948E-4,-5.499999970E-4,-1.649999991E-3
2.910219214E0,9.624999948E-4,-5.499999970E-4,-2.612499986E-3
2.912719597E0,9.624999948E-4,-5.499999970E-4,-4.812499974E-3
2.915219906E0,-1.374999993E-4,5.499999970E-4,-3.712499980E-3
2.917720443E0,-1.374999993E-4,5.499999970E-4,-2.612499986E-3
2.920220844E0,9.624999948E-4,5.499999970E-4,-3.712499980E-3
2.922721152E0,-1.099999994E-3,-5.499999970E-4,-4.812499974E-3
2.925221688E0,-1.099999994E-3,-5.499999970E-4,-6.874999963E-3
2.927721998E0,-1.099999994E-3,5.499999970E-4,-9.074999951E-3
2.930222381E0,-1.374999993E-4,5.499999970E-4,-1.113750041E-2
2.932722661E0,-1.374999993E-4,5.499999970E-4,-1.003750041E-2
2.935222969E0,-1.374999993E-4,1.649999991E-3,-9.074999951E-3
2.937723506E0,-1.374999993E-4,-5.499999970E-4,-1.113750041E-2
2.940223892E0,9.624999948E-4,1.649999991E-3,-1.003750041E-2
2.942724210E0,-1.099999994E-3,-5.499999970E-4,-1.003750041E-2
2.945224746E0,-1.099999994E-3,-5.499999970E-4,-1.003750041E-2
2.947725056E0,-1.374999993E-4,5.499999970E-4,-7.974999957E-3
2.950225439E0,-1.374999993E-4,5.499999970E-4,-9.074999951E-3
2.952725738E0,-1.374999993E-4,5.499999970E-4,-7.974999957E-3
2.955226275E0,-1.374999993E-4,1.649999991E-3,-6.874999963E-3
2.957726585E0,-1.099999994E-3,5.499999970E-4,-6.874999963E-3
2.960226967E0,-1.374999993E-4,-5.499999970E-4,-5.774999969E-3
2.962727520E0,9.624999948E-4,-1.649999991E-3,-4.812499974E-3
2.965227829E0,-1.374999993E-4,-5.499999970E-4,-5.774999969E-3
2.967728212E0,-1.374999993E-4,-5.499999970E-4,-5.774999969E-3
2.970228522E0,-1.374999993E-4,-1.649999991E-3,-7.974999957E-3
2.972729053E0,-1.374999993E-4,1.649999991E-3,-9.074999951E-3
2.975229363E0,-1.374999993E-4,-5.499999970E-4,-7.974999957E-3
2.977729746E0,-1.099999994E-3,1.649999991E-3,-1.003750041E-2
2.980230055E0,-1.099999994E-3,-5.499999970E-4,-7.974999957E-3
2.982730588E0,-1.374999993E-4,5.499999970E-4,-6.874999963E-3
2.985230974E0,-1.374999993E-4,5.499999970E-4,-9.074999951E-3
2.987731282E0,-1.374999993E-4,-5.499999970E-4,-7.974999957E-3
2.990231590E0,-1.099999994E-3,5.499999970E-4,-6.874999963E-3
2.992732126E0,9.624999948E-4,5.499999970E-4,-5.774999969E-3
2.995232440E0,-1.374999993E-4,-1.649999991E-3,-4.812499974E-3
2.997732822E0,-1.374999993E-4,1.649999991E-3,-3.712499980E-3
3.000233132E0,-1.374999993E-4,-5.499999970E-4,-5.774999969E-3
3.002733669E0,-1.374999993E-4,-5.499999970E-4,5.499999970E-4
3.005234055E0,9.624999948E-4,-5.499999970E-4,-5.499999970E-4
3.007734363E0,-1.099999994E-3,5.499999970E-4,5.499999970E-4
3.010234899E0,-1.374999993E-4,-5.499999970E-4,-5.499999970E-4
3.012735209E0,9.624999948E-4,-5.499999970E-4,5.499999970E-4
3.015235602E0,-1.374999993E-4,-5.499999970E-4,5.499999970E-4
3.017735911E0,2.062499989E-3,-1.649999991E-3,-5.499999970E-4
3.020236219E0,-1.099999994E-3,-5.499999970E-4,5.499999970E-4
3.022736756E0,9.624999948E-4,-1.649999991E-3,5.499999970E-4
3.025237046E0,-1.374999993E-4,-5.499999970E-4,-1.649999991E-3
3.027737660E0,9.624999948E-4,-5.499999970E-4,-1.649999991E-3
3.030237969E0,-1.374999993E-4,5.499999970E-4,-1.649999991E-3
3.032738354E0,9.624999948E-4,-1.649999991E-3,-5.499999970E-4
3.035238662E0,-1.099999994E-3,-2.612499986E-3,1.649999991E-3
3.037738983E0,9.624999948E-4,-5.499999970E-4,2.612499986E-3
3.040239520E0,-1.374999993E-4,-5.499999970E-4,2.612499986E-3
3.042739830E0,-1.374999993E-4,-5.499999970E-4,4.812499974E-3
3.045240212E0,9.624999948E-4,1.649999991E-3,4.812499974E-3
3.047740756E0,-1.099999994E-3,5.499999970E-4,5.912499968E-3
3.050241065E0,9.624999948E-4,-1.649999991E-3,7.974999957E-3
3.052741448E0,9.624999948E-4,5.499999970E-4,7.974999957E-3
3.055241758E0,9.624999948E-4,1.649999991E-3,7.974999957E-3
3.057742284E0,9.624999948E-4,-5.499999970E-4,9.074999951E-3
3.060242594E0,2.062499989E-3,5.499999970E-4,9.074999951E-3
3.062742976E0,9.624999948E-4,-1.649999991E-3,7.974999957E-3
3.065243286E0,-1.374999993E-4,5.499999970E-4,7.974999957E-3
3.067743823E0,9.624999948E-4,1.649999991E-3,6.874999963E-3
3.070244219E0,9.624999948E-4,5.499999970E-4,6.874999963E-3
3.072744527E0,9.624999948E-4,-5.499999970E-4,5.912499968E-3
3.075245063E0,-1.374999993E-4,5.499999970E-4,5.912499968E-3
3.077745373E0,-1.374999993E-4,5.499999970E-4,6.874999963E-3
3.080245756E0,-1.374999993E-4,5.499999970E-4,4.812499974E-3
3.082746065E0,-1.374999993E-4,5.499999970E-4,7.974999957E-3
3.085246373E0,9.624999948E-4,5.499999970E-4,1.017499994E-2
3.087746910E0,-1.099999994E-3,1.649999991E-3,7.974999957E-3
3.090247219E0,-1.374999993E-4,-5.499999970E-4,1.113750041E-2
3.092747616E0,2.062499989E-3,5.499999970E-4,1.017499994E-2
3.095248154E0,-1.374999993E-4,5.499999970E-4,1.223750040E-2
3.097748464E0,2.062499989E-3,5.499999970E-4,1.113750041E-2
3.100248847E0,9.624999948E-4,5.499999970E-4,1.333750039E-2
3.102749190E0,9.624999948E-4,-5.499999970E-4,1.443750039E-2
3.105249727E0,2.062499989E-3,-1.649999991E-3,1.443750039E-2
3.107750037E0,-1.374999993E-4,-5.499999970E-4,1.333750039E-2
3.110250419E0,-1.374999993E-4,-5.499999970E-4,1.223750040E-2
3.112750724E0,9.624999948E-4,5.499999970E-4,1.017499994E-2
3.115251260E0,2.062499989E-3,-2.612499986E-3,1.113750041E-2
3.117751647E0,2.062499989E-3,-5.499999970E-4,1.017499994E-2
3.120251955E0,9.624999948E-4,-5.499999970E-4,7.974999957E-3
3.122752496E0,9.624999948E-4,1.649999991E-3,7.974999957E-3
3.125252806E0,9.624999948E-4,-5.499999970E-4,6.874999963E-3
3.127753188E0,9.624999948E-4,-1.649999991E-3,5.912499968E-3
3.130253498E0,9.624999948E-4,-5.499999970E-4,7.974999957E-3
3.132754035E0,9.624999948E-4,-5.499999970E-4,7.974999957E-3
3.135254329E0,-1.374999993E-4,-5.499999970E-4,6.874999963E-3
3.137754712E0,-1.374999993E-4,5.499999970E-4,7.974999957E-3
3.140255022E0,-1.374999993E-4,5.499999970E-4,1.017499994E-2
3.142755558E0,9.624999948E-4,-5.499999970E-4,1.113750041E-2
3.145255873E0,-1.374999993E-4,-5.499999970E-4,7.974999957E-3
3.147756255E0,-1.374999993E-4,1.649999991E-3,1.017499994E-2
3.150256565E0,-1.374999993E-4,5.499999970E-4,9.074999951E-3
3.152757102E0,9.624999948E-4,5.499999970E-4,1.017499994E-2
3.155257406E0,-1.099999994E-3,5.499999970E-4,9.074999951E-3
3.157757789E0,-1.374999993E-4,-5.499999970E-4,6.874999963E-3
3.160258327E0,9.624999948E-4,-5.499999970E-4,7.974999957E-3
3.162758637E0,9.624999948E-4,-5.499999970E-4,7.974999957E-3
3.165259020E0,2.062499989E-3,1.649999991E-3,5.912499968E-3
3.167759319E0,2.062499989E-3,-5.499999970E-4,1.649999991E-3
3.170259856E0,2.062499989E-3,-5.499999970E-4,2.612499986E-3
3.172760166E0,-1.374999993E-4,-5.499999970E-4,4.812499974E-3
3.175260548E0,-1.374999993E-4,5.499999970E-4,2.612499986E-3
3.177760863E0,-1.374999993E-4,5.499999970E-4,1.649999991E-3
3.180261399E0,9.624999948E-4,1.649999991E-3,3.712499980E-3
3.182761709E0,2.062499989E-3,-5.499999970E-4,3.712499980E-3
3.185262092E0,9.624999948E-4,5.499999970E-4,4.812499974E-3
3.187762401E0,9.624999948E-4,5.499999970E-4,5.912499968E-3
3.190262933E0,9.624999948E-4,-5.499999970E-4,5.912499968E-3
3.192763243E0,9.624999948E-4,5.499999970E-4,5.912499968E-3
3.195263625E0,9.624999948E-4,5.499999970E-4,6.874999963E-3
3.197763935E0,2.062499989E-3,1.649999991E-3,9.074999951E-3
3.200264548E0,-1.374999993E-4,-5.499999970E-4,5.912499968E-3
3.202764858E0,-1.374999993E-4,5.499999970E-4,4.812499974E-3
3.205265166E0,9.624999948E-4,-5.499999970E-4,3.712499980E-3
3.207765702E0,-1.099999994E-3,1.649999991E-3,4.812499974E-3
3.210266002E0,9.624999948E-4,5.499999970E-4,3.712499980E-3
3.212766384E0,-1.374999993E-4,5.499999970E-4,1.649999991E-3
3.215266694E0,-1.374999993E-4,-5.499999970E-4,1.649999991E-3
3.217767231E0,-1.374999993E-4,-5.499999970E-4,-1.649999991E-3
3.220267517E0,9.624999948E-4,-5.499999970E-4,5.499999970E-4
3.222767900E0,-1.374999993E-4,5.499999970E-4,-5.499999970E-4
3.225268438E0,-1.374999993E-4,5.499999970E-4,-2.612499986E-3
3.227768748E0,9.624999948E-4,5.499999970E-4,1.649999991E-3
3.230269126E0,-1.374999993E-4,1.649999991E-3,1.649999991E-3
3.232769435E0,9.624999948E-4,-5.499999970E-4,1.649999991E-3
3.235269972E0,2.062499989E-3,1.649999991E-3,5.499999970E-4
3.237770282E0,-1.374999993E-4,5.499999970E-4,3.712499980E-3
3.240270589E0,-1.374999993E-4,-5.499999970E-4,3.712499980E-3
3.242770977E0,-1.374999993E-4,5.499999970E-4,4.812499974E-3
3.245271515E0,-1.374999993E-4,5.499999970E-4,4.812499974E-3
3.247771825E0,-1.099999994E-3,5.499999970E-4,2.612499986E-3
3.250272208E0,9.624999948E-4,1.649999991E-3,3.712499980E-3
3.252772517E0,-1.099999994E-3,5.499999970E-4,2.612499986E-3
3.255273054E0,9.624999948E-4,5.499999970E-4,1.649999991E-3
3.257773364E0,-1.374999993E-4,5.499999970E-4,1.649999991E-3
3.260273746E0,9.624999948E-4,5.499999970E-4,-5.499999970E-4
3.262774051E0,-1.099999994E-3,5.499999970E-4,-2.612499986E-3
3.265274587E0,9.624999948E-4,-5.499999970E-4,-1.649999991E-3
3.267774974E0,-1.099999994E-3,1.649999991E-3,-2.612499986E-3
3.270275282E0,-1.374999993E-4,-5.499999970E-4,-1.649999991E-3
3.272775803E0,-1.374999993E-4,5.499999970E-4,-3.712499980E-3
3.275276113E0,-1.374999993E-4,5.499999970E-4,-1.649999991E-3
3.277776495E0,-1.099999994E-3,-5.499999970E-4,-2.612499986E-3
3.280276805E0,2.062499989E-3,-5.499999970E-4,-2.612499986E-3
3.282777333E0,-1.099999994E-3,1.649999991E-3,5.499999970E-4
3.285277642E0,9.624999948E-4,1.649999991E-3,-5.499999970E-4
3.287778025E0,-1.374999993E-4,5.499999970E-4,-5.499999970E-4
3.290278563E0,9.624999948E-4,5.499999970E-4,-5.499999970E-4
3.292778858E0,-1.099999994E-3,1.649999991E-3,5.499999970E-4
3.295279241E0,-1.374999993E-4,5.499999970E-4,-5.499999970E-4
3.297779550E0,-1.374999993E-4,-5.499999970E-4,-5.499999970E-4
3.300280087E0,-1.374999993E-4,5.499999970E-4,-2.612499986E-3
3.302780383E0,-1.374999993E-4,5.499999970E-4,-1.649999991E-3
3.305280690E0,9.624999948E-4,1.649999991E-3,-5.774999969E-3
3.307781073E0,9.624999948E-4,5.499999970E-4,-5.774999969E-3
3.310281611E0,2.062499989E-3,1.649999991E-3,-5.774999969E-3
3.312781921E0,-1.099999994E-3,5.499999970E-4,-6.874999963E-3
3.315282304E0,-1.374999993E-4,5.499999970E-4,-7.974999957E-3
3.317782613E0,9.624999948E-4,-5.499999970E-4,-7.974999957E-3
3.320283150E0,-1.374999993E-4,-1.649999991E-3,-7.974999957E-3
3.322783460E0,-1.374999993E-4,5.499999970E-4,-9.074999951E-3
3.325283856E0,-1.374999993E-4,-1.649999991E-3,-7.974999957E-3
3.327784166E0,9.624999948E-4,-5.499999970E-4,-9.074999951E-3
3.330284702E0,-1.374999993E-4,-1.649999991E-3,-7.974999957E-3
3.332785089E0,9.624999948E-4,5.499999970E-4,-7.974999957E-3
3.335285407E0,-1.099999994E-3,5.499999970E-4,-6.874999963E-3
3.337785943E0,9.624999948E-4,5.499999970E-4,-5.774999969E-3
3.340286253E0,-1.374999993E-4,-1.649999991E-3,-7.974999957E-3
3.342786635E0,9.624999948E-4,5.499999970E-4,-6.874999963E-3
3.345286930E0,9.624999948E-4,-2.612499986E-3,-1.003750041E-2
3.347787467E0,-1.099999994E-3,1.649999991E-3,-1.003750041E-2
3.350287776E0,-1.099999994E-3,5.499999970E-4,-1.113750041E-2
3.352788159E0,-1.374999993E-4,5.499999970E-4,-1.429999992E-2
3.355288697E0,-1.374999993E-4,5.499999970E-4,-1.333750039E-2
3.357789031E0,-1.374999993E-4,-5.499999970E-4,-1.649999991E-2
3.360289414E0,9.624999948E-4,5.499999970E-4,-1.539999992E-2
3.362789723E0,-1.099999994E-3,1.649999991E-3,-1.649999991E-2
3.365290031E0,-1.374999993E-4,-1.649999991E-3,-1.759999990E-2
3.367790578E0,-1.099999994E-3,5.499999970E-4,-1.856249943E-2
3.370290887E0,-1.374999993E-4,5.499999970E-4,-1.759999990E-2
3.372791270E0,-1.099999994E-3,5.499999970E-4,-1.759999990E-2
3.375291808E0,-1.374999993E-4,-5.499999970E-4,-1.649999991E-2
3.377792118E0,-1.374999993E-4,-1.649999991E-3,-1.649999991E-2
3.380292496E0,-1.099999994E-3,-5.499999970E-4,-1.759999990E-2
3.382792805E0,9.624999948E-4,5.499999970E-4,-1.539999992E-2
3.385293342E0,-1.099999994E-3,-5.499999970E-4,-1.539999992E-2
3.387793652E0,-1.374999993E-4,-5.499999970E-4,-1.539999992E-2
3.390294049E0,-1.099999994E-3,-5.499999970E-4,-1.649999991E-2
3.392794359E0,-1.374999993E-4,5.499999970E-4,-1.649999991E-2
3.395294667E0,-1.099999994E-3,1.649999991E-3,-1.539999992E-2
3.397795280E0,-1.374999993E-4,5.499999970E-4,-1.856249943E-2
3.400295590E0,-1.374999993E-4,5.499999970E-4,-1.966249943E-2
3.402796145E0,-1.099999994E-3,-5.499999970E-4,-1.966249943E-2
3.405296455E0,-1.374999993E-4,5.499999970E-4,-1.966249943E-2
3.407796837E0,9.624999948E-4,5.499999970E-4,-1.966249943E-2
3.410297147E0,-1.099999994E-3,5.499999970E-4,-1.966249943E-2
3.412797440E0,-1.374999993E-4,-5.499999970E-4,-1.966249943E-2
3.415297976E0,-1.374999993E-4,5.499999970E-4,-2.076249942E-2
3.417798363E0,-1.374999993E-4,5.499999970E-4,-1.856249943E-2
3.420298671E0,-1.374999993E-4,-5.499999970E-4,-1.856249943E-2
3.422799212E0,9.624999948E-4,-5.499999970E-4,-1.759999990E-2
3.425299522E0,-1.374999993E-4,5.499999970E-4,-1.539999992E-2
3.427799904E0,-1.374999993E-4,-2.612499986E-3,-1.759999990E-2
3.430300214E0,-1.374999993E-4,-5.499999970E-4,-1.539999992E-2
3.432800741E0,-1.374999993E-4,-1.649999991E-3,-1.539999992E-2
3.435301050E0,-1.374999993E-4,5.499999970E-4,-1.333750039E-2
3.437801433E0,-1.374999993E-4,-5.499999970E-4,-1.223750040E-2
3.440301971E0,-1.374999993E-4,-5.499999970E-4,-1.539999992E-2
3.442802281E0,-1.374999993E-4,-1.649999991E-3,-1.429999992E-2
3.445302664E0,-1.374999993E-4,1.649999991E-3,-1.223750040E-2
3.447802973E0,-2.199999988E-3,-1.649999991E-3,-1.333750039E-2
3.450303510E0,-1.374999993E-4,5.499999970E-4,-1.429999992E-2
3.452803820E0,-1.374999993E-4,5.499999970E-4,-1.113750041E-2
3.455304217E0,9.624999948E-4,5.499999970E-4,-1.333750039E-2
3.457804527E0,-1.099999994E-3,5.499999970E-4,-1.113750041E-2
3.460305063E0,-1.374999993E-4,-5.499999970E-4,-1.223750040E-2
3.462805373E0,-1.374999993E-4,1.649999991E-3,-1.003750041E-2
3.465305770E0,2.062499989E-3,-5.499999970E-4,-1.003750041E-2
3.467806079E0,-1.374999993E-4,-5.499999970E-4,-7.974999957E-3
3.470306616E0,9.624999948E-4,5.499999970E-4,-7.974999957E-3
3.472806926E0,-1.374999993E-4,5.499999970E-4,-4.812499974E-3
3.475307304E0,-1.099999994E-3,-5.499999970E-4,-3.712499980E-3
3.477807614E0,-1.374999993E-4,5.499999970E-4,-1.649999991E-3
3.480308150E0,-1.374999993E-4,-5.499999970E-4,5.499999970E-4
3.482808460E0,9.624999948E-4,5.499999970E-4,1.649999991E-3
3.485308843E0,9.624999948E-4,5.499999970E-4,1.649999991E-3
3.487809366E0,-1.374999993E-4,5.499999970E-4,2.612499986E-3
3.490309676E0,9.624999948E-4,5.499999970E-4,3.712499980E-3
3.492810058E0,9.624999948E-4,5.499999970E-4,3.712499980E-3
3.495310368E0,9.624999948E-4,-5.499999970E-4,3.712499980E-3
3.497810905E0,-1.099999994E-3,5.499999970E-4,4.812499974E-3
3.500311214E0,9.624999948E-4,5.499999970E-4,5.912499968E-3
3.502811597E0,-1.374999993E-4,5.499999970E-4,6.874999963E-3
3.505311907E0,-1.374999993E-4,5.499999970E-4,7.974999957E-3
3.507812438E0,2.062499989E-3,5.499999970E-4,7.974999957E-3
3.510312825E0,9.624999948E-4,-5.499999970E-4,1.017499994E-2
3.512813132E0,9.624999948E-4,5.499999970E-4,1.017499994E-2
3.515313440E0,2.062499989E-3,5.499999970E-4,1.113750041E-2
3.517813977E0,-1.374999993E-4,-5.499999970E-4,1.443750039E-2
3.520314291E0,2.062499989E-3,5.499999970E-4,1.539999992E-2
3.522814674E0,9.624999948E-4,-5.499999970E-4,1.539999992E-2
3.525314984E0,9.624999948E-4,1.649999991E-3,1.869999990E-2
3.527815520E0,2.062499989E-3,5.499999970E-4,1.966249943E-2
3.530315864E0,2.062499989E-3,5.499999970E-4,2.076249942E-2
3.532816171E0,2.062499989E-3,-1.649999991E-3,1.966249943E-2
3.535316708E0,2.062499989E-3,5.499999970E-4,1.966249943E-2
3.537817018E0,2.062499989E-3,5.499999970E-4,2.186249942E-2
3.540317390E0,2.062499989E-3,5.499999970E-4,2.076249942E-2
3.542817700E0,9.624999948E-4,5.499999970E-4,2.186249942E-2
3.545318236E0,9.624999948E-4,-5.499999970E-4,2.076249942E-2
3.547818546E0,2.062499989E-3,-5.499999970E-4,2.076249942E-2
3.550318939E0,2.062499989E-3,2.612499986E-3,2.076249942E-2
3.552819248E0,9.624999948E-4,5.499999970E-4,2.186249942E-2
3.555319785E0,9.624999948E-4,5.499999970E-4,2.392499894E-2
3.557820095E0,9.624999948E-4,5.499999970E-4,2.392499894E-2
3.560320477E0,9.624999948E-4,5.499999970E-4,2.502499893E-2
3.562820792E0,3.162499983E-3,5.499999970E-4,2.392499894E-2
3.565321328E0,9.624999948E-4,-1.649999991E-3,2.502499893E-2
3.567821638E0,9.624999948E-4,2.612499986E-3,2.612499893E-2
3.570322021E0,2.062499989E-3,1.649999991E-3,2.502499893E-2
3.572822554E0,9.624999948E-4,-5.499999970E-4,2.502499893E-2
3.575322941E0,2.062499989E-3,1.649999991E-3,2.502499893E-2
3.577823248E0,2.062499989E-3,-5.499999970E-4,2.612499893E-2
3.580323785E0,4.124999978E-3,5.499999970E-4,2.392499894E-2
3.582824080E0,4.124999978E-3,-5.499999970E-4,2.502499893E-2
3.585324387E0,3.162499983E-3,5.499999970E-4,2.392499894E-2
3.587824770E0,3.162499983E-3,5.499999970E-4,2.392499894E-2
3.590325080E0,9.624999948E-4,5.499999970E-4,2.282499894E-2
3.592825611E0,2.062499989E-3,-5.499999970E-4,2.392499894E-2
3.595325998E0,9.624999948E-4,1.649999991E-3,2.186249942E-2
3.597826305E0,9.624999948E-4,-5.499999970E-4,2.076249942E-2
3.600326842E0,2.062499989E-3,5.499999970E-4,1.966249943E-2
3.602827152E0,9.624999948E-4,5.499999970E-4,1.869999990E-2
3.605327534E0,9.624999948E-4,-5.499999970E-4,1.966249943E-2
3.607827844E0,-1.374999993E-4,1.649999991E-3,1.966249943E-2
3.610328380E0,-1.374999993E-4,-5.499999970E-4,1.869999990E-2
3.612828690E0,-1.374999993E-4,1.649999991E-3,1.759999990E-2
3.615328984E0,9.624999948E-4,5.499999970E-4,1.759999990E-2
3.617829366E0,2.062499989E-3,5.499999970E-4,1.649999991E-2
3.620329905E0,9.624999948E-4,-5.499999970E-4,1.539999992E-2
3.622830215E0,2.062499989E-3,5.499999970E-4,1.649999991E-2
3.625330597E0,2.062499989E-3,-5.499999970E-4,1.333750039E-2
3.627830892E0,9.624999948E-4,5.499999970E-4,1.223750040E-2
3.630331428E0,9.624999948E-4,-5.499999970E-4,1.113750041E-2
3.632831738E0,2.062499989E-3,5.499999970E-4,9.074999951E-3
3.635332121E0,9.624999948E-4,-5.499999970E-4,6.874999963E-3
3.637832454E0,-1.374999993E-4,-5.499999970E-4,5.912499968E-3
3.640332991E0,9.624999948E-4,-5.499999970E-4,2.612499986E-3
3.642833377E0,-1.374999993E-4,5.499999970E-4,3.712499980E-3
3.645333685E0,-1.374999993E-4,-5.499999970E-4,2.612499986E-3
3.647834213E0,-1.099999994E-3,-5.499999970E-4,-1.649999991E-3
3.650334522E0,-1.099999994E-3,-5.499999970E-4,-2.612499986E-3
3.652834905E0,-1.374999993E-4,-5.499999970E-4,-3.712499980E-3
3.655335215E0,-1.374999993E-4,-5.499999970E-4,-5.774999969E-3
3.657835765E0,-1.099999994E-3,1.649999991E-3,-6.874999963E-3
3.660336152E0,-1.099999994E-3,-5.499999970E-4,-6.874999963E-3
3.662836459E0,-1.099999994E-3,-5.499999970E-4,-9.074999951E-3
3.665336996E0,-2.199999988E-3,-5.499999970E-4,-7.974999957E-3
3.667837292E0,2.062499989E-3,1.649999991E-3,-1.003750041E-2
3.670337674E0,-1.374999993E-4,-5.499999970E-4,-1.223750040E-2
3.672837984E0,-1.374999993E-4,-5.499999970E-4,-1.333750039E-2
3.675338520E0,-1.374999993E-4,1.649999991E-3,-1.429999992E-2
3.677838820E0,-1.374999993E-4,-5.499999970E-4,-1.539999992E-2
3.680339128E0,-1.374999993E-4,-1.649999991E-3,-1.856249943E-2
3.682839510E0,9.624999948E-4,-5.499999970E-4,-1.759999990E-2
3.685340049E0,-1.374999993E-4,5.499999970E-4,-1.966249943E-2
3.687840359E0,-1.099999994E-3,5.499999970E-4,-1.966249943E-2
3.690340746E0,-1.374999993E-4,5.499999970E-4,-2.186249942E-2
3.692841056E0,-2.199999988E-3,-1.649999991E-3,-2.392499894E-2
3.695341592E0,-1.374999993E-4,5.499999970E-4,-2.392499894E-2
3.697841902E0,-1.374999993E-4,1.649999991E-3,-2.612499893E-2
3.700342313E0,-1.374999993E-4,5.499999970E-4,-2.502499893E-2
3.702842622E0,-1.099999994E-3,-5.499999970E-4,-2.612499893E-2
3.705343159E0,-1.099999994E-3,5.499999970E-4,-2.612499893E-2
3.707843545E0,-1.374999993E-4,5.499999970E-4,-2.708750032E-2
3.710343881E0,-1.099999994E-3,1.649999991E-3,-2.818750031E-2
3.712844418E0,-1.374999993E-4,-5.499999970E-4,-2.612499893E-2
3.715344727E0,-1.099999994E-3,-5.499999970E-4,-2.612499893E-2
3.717845110E0,-2.199999988E-3,-5.499999970E-4,-2.612499893E-2
3.720345420E0,-1.099999994E-3,1.649999991E-3,-2.502499893E-2
3.722845961E0,-1.374999993E-4,-5.499999970E-4,-2.708750032E-2
3.725346348E0,-1.374999993E-4,1.649999991E-3,-2.502499893E-2
3.727846655E0,-2.199999988E-3,5.499999970E-4,-2.612499893E-2
3.730346963E0,-2.199999988E-3,5.499999970E-4,-2.392499894E-2
3.732847510E0,-1.099999994E-3,-1.649999991E-3,-2.502499893E-2
3.735347819E0,-1.099999994E-3,-5.499999970E-4,-2.502499893E-2
3.737848202E0,-1.374999993E-4,5.499999970E-4,-2.392499894E-2
3.740348512E0,-1.374999993E-4,-1.649999991E-3,-2.282499894E-2
3.742849048E0,-1.374999993E-4,5.499999970E-4,-2.612499893E-2
3.745349334E0,-1.374999993E-4,5.499999970E-4,-2.186249942E-2
3.747849716E0,-1.099999994E-3,-1.649999991E-3,-2.186249942E-2
3.750350255E0,-1.374999993E-4,-5.499999970E-4,-1.856249943E-2
3.752850565E0,-2.199999988E-3,-1.649999991E-3,-1.856249943E-2
3.755350980E0,-2.199999988E-3,-1.649999991E-3,-1.759999990E-2
3.757851290E0,-1.374999993E-4,-1.649999991E-3,-1.649999991E-2
3.760351826E0,-1.374999993E-4,5.499999970E-4,-1.429999992E-2
3.762852136E0,-1.374999993E-4,5.499999970E-4,-1.223750040E-2
3.765352524E0,9.624999948E-4,5.499999970E-4,-1.113750041E-2
3.767852833E0,-2.199999988E-3,5.499999970E-4,-9.074999951E-3
3.770353370E0,-1.374999993E-4,-5.499999970E-4,-9.074999951E-3
3.772853756E0,9.624999948E-4,1.649999991E-3,-9.074999951E-3
3.775354064E0,-1.374999993E-4,-5.499999970E-4,-5.774999969E-3
3.777854601E0,9.624999948E-4,1.649999991E-3,-6.874999963E-3
3.780354910E0,-1.099999994E-3,5.499999970E-4,-3.712499980E-3
3.782855293E0,-1.099999994E-3,5.499999970E-4,-2.612499986E-3
3.785355642E0,-1.374999993E-4,5.499999970E-4,-1.649999991E-3
3.787856178E0,9.624999948E-4,-1.649999991E-3,5.499999970E-4
3.790356488E0,9.624999948E-4,-5.499999970E-4,1.649999991E-3
3.792856870E0,9.624999948E-4,-5.499999970E-4,3.712499980E-3
3.795357180E0,2.062499989E-3,-5.499999970E-4,4.812499974E-3
3.797857745E0,-1.374999993E-4,-5.499999970E-4,4.812499974E-3
3.800358054E0,9.624999948E-4,5.499999970E-4,6.874999963E-3
3.802858437E0,-1.099999994E-3,5.499999970E-4,9.074999951E-3
3.805358747E0,9.624999948E-4,1.649999991E-3,1.017499994E-2
3.807859255E0,-1.374999993E-4,-5.499999970E-4,1.113750041E-2
3.810359565E0,-1.374999993E-4,1.649999991E-3,1.443750039E-2
3.812859947E0,9.624999948E-4,1.649999991E-3,1.539999992E-2
3.815360486E0,2.062499989E-3,5.499999970E-4,1.759999990E-2
3.817860805E0,2.062499989E-3,2.612499986E-3,1.759999990E-2
3.820361187E0,9.624999948E-4,5.499999970E-4,1.759999990E-2
3.822861497E0,-1.374999993E-4,1.649999991E-3,2.076249942E-2
3.825362033E0,9.624999948E-4,5.499999970E-4,2.186249942E-2
3.827862348E0,-1.374999993E-4,1.649999991E-3,2.186249942E-2
3.830362731E0,2.062499989E-3,-1.649999991E-3,2.502499893E-2
3.832863040E0,9.624999948E-4,1.649999991E-3,2.186249942E-2
3.835363577E0,9.624999948E-4,-5.499999970E-4,2.392499894E-2
3.837863886E0,2.062499989E-3,-5.499999970E-4,2.392499894E-2
3.840364288E0,2.062499989E-3,-1.649999991E-3,2.612499893E-2
3.842864598E0,2.062499989E-3,5.499999970E-4,2.502499893E-2
3.845365134E0,2.062499989E-3,-5.499999970E-4,2.502499893E-2
3.847865444E0,2.062499989E-3,-5.499999970E-4,2.708750032E-2
3.850365838E0,9.624999948E-4,1.649999991E-3,2.612499893E-2
3.852866147E0,9.624999948E-4,-1.649999991E-3,2.612499893E-2
3.855366684E0,2.062499989E-3,5.499999970E-4,2.502499893E-2
3.857867070E0,2.062499989E-3,-5.499999970E-4,2.502499893E-2
3.860367368E0,2.062499989E-3,5.499999970E-4,2.392499894E-2
3.862867905E0,2.062499989E-3,-5.499999970E-4,2.392499894E-2
3.865368214E0,2.062499989E-3,1.649999991E-3,2.392499894E-2
3.867868597E0,-1.099999994E-3,-5.499999970E-4,2.392499894E-2
3.870368907E0,2.062499989E-3,5.499999970E-4,2.392499894E-2
3.872869433E0,9.624999948E-4,5.499999970E-4,2.282499894E-2
3.875369743E0,9.624999948E-4,1.649999991E-3,2.186249942E-2
3.877870125E0,9.624999948E-4,5.499999970E-4,2.076249942E-2
3.880370664E0,-1.374999993E-4,5.499999970E-4,1.869999990E-2
3.882870970E0,-1.374999993E-4,1.649999991E-3,1.869999990E-2
3.885371352E0,2.062499989E-3,-5.499999970E-4,1.759999990E-2
3.887871662E0,2.062499989E-3,2.612499986E-3,1.649999991E-2
3.890372198E0,2.062499989E-3,-5.499999970E-4,1.649999991E-2
3.892872498E0,2.062499989E-3,-5.499999970E-4,1.333750039E-2
3.895372881E0,2.062499989E-3,-1.649999991E-3,1.223750040E-2
3.897873190E0,2.062499989E-3,5.499999970E-4,9.074999951E-3
3.900373498E0,2.062499989E-3,-5.499999970E-4,1.017499994E-2
3.902874020E0,9.624999948E-4,5.499999970E-4,6.874999963E-3
3.905374407E0,2.062499989E-3,-1.649999991E-3,5.912499968E-3
3.907874715E0,-1.374999993E-4,5.499999970E-4,6.874999963E-3
3.910375251E0,9.624999948E-4,-5.499999970E-4,3.712499980E-3
3.912875585E0,9.624999948E-4,5.499999970E-4,3.712499980E-3
3.915375968E0,-1.374999993E-4,5.499999970E-4,2.612499986E-3
3.917876277E0,-1.099999994E-3,-5.499999970E-4,5.499999970E-4
3.920376814E0,9.624999948E-4,1.649999991E-3,-1.649999991E-3
3.922877200E0,-1.374999993E-4,5.499999970E-4,-3.712499980E-3
3.925377488E0,9.624999948E-4,1.649999991E-3,-3.712499980E-3
3.927878025E0,-1.374999993E-4,5.499999970E-4,-4.812499974E-3
3.930378334E0,-1.374999993E-4,-5.499999970E-4,-7.974999957E-3
3.932878642E0,-1.099999994E-3,5.499999970E-4,-7.974999957E-3
3.935379035E0,-1.374999993E-4,-5.499999970E-4,-1.003750041E-2
3.937879573E0,-1.374999993E-4,-5.499999970E-4,-1.113750041E-2
3.940379883E0,-1.099999994E-3,-5.499999970E-4,-1.333750039E-2
3.942880265E0,-1.099999994E-3,5.499999970E-4,-1.539999992E-2
3.945380809E0,-1.099999994E-3,5.499999970E-4,-1.539999992E-2
3.947881119E0,9.624999948E-4,-5.499999970E-4,-1.759999990E-2
3.950381501E0,9.624999948E-4,-5.499999970E-4,-1.649999991E-2
3.952881811E0,-1.099999994E-3,-5.499999970E-4,-1.966249943E-2
3.955382332E0,-1.099999994E-3,-5.499999970E-4,-2.076249942E-2
3.957882642E0,-1.099999994E-3,5.499999970E-4,-2.076249942E-2
3.960383025E0,-1.099999994E-3,5.499999970E-4,-2.186249942E-2
3.962883334E0,-1.099999994E-3,5.499999970E-4,-2.076249942E-2
3.965383852E0,-1.099999994E-3,1.649999991E-3,-2.076249942E-2
3.967884161E0,-1.099999994E-3,1.649999991E-3,-2.282499894E-2
3.970384544E0,-1.099999994E-3,5.499999970E-4,-2.186249942E-2
3.972884854E0,-1.099999994E-3,-5.499999970E-4,-2.076249942E-2
3.975385390E0,-1.099999994E-3,-5.499999970E-4,-2.186249942E-2
3.977885714E0,-1.099999994E-3,-5.499999970E-4,-2.076249942E-2
3.980386097E0,-1.099999994E-3,5.499999970E-4,-2.282499894E-2
3.982886406E0,-1.099999994E-3,-5.499999970E-4,-2.076249942E-2
3.985386714E0,-1.099999994E-3,-1.649999991E-3,-2.282499894E-2
3.987887265E0,-1.099999994E-3,5.499999970E-4,-2.076249942E-2
3.990387652E0,-1.099999994E-3,-5.499999970E-4,-1.966249943E-2
3.992888189E0,-1.099999994E-3,-5.499999970E-4,-1.856249943E-2
3.995388498E0,-1.374999993E-4,-2.612499986E-3,-2.186249942E-2
3.997888881E0,-1.374999993E-4,-5.499999970E-4,-2.076249942E-2
4.000389176E0,-1.099999994E-3,-5.499999970E-4,-1.856249943E-2
4.002889483E0,-1.374999993E-4,1.649999991E-3,-2.076249942E-2
4.005390020E0,9.624999948E-4,-5.499999970E-4,-1.649999991E-2
4.007890329E0,9.624999948E-4,5.499999970E-4,-1.759999990E-2
4.010390698E0,9.624999948E-4,5.499999970E-4,-1.759999990E-2
4.012891237E0,-1.099999994E-3,5.499999970E-4,-1.539999992E-2
4.015391546E0,-1.374999993E-4,-5.499999970E-4,-1.429999992E-2
4.017891929E0,-1.374999993E-4,5.499999970E-4,-1.223750040E-2
4.020392239E0,-1.099999994E-3,-5.499999970E-4,-1.003750041E-2
4.022892775E0,-1.099999994E-3,1.649999991E-3,-9.074999951E-3
4.025393085E0,-1.374999993E-4,5.499999970E-4,-6.874999963E-3
4.027893467E0,-1.374999993E-4,5.499999970E-4,-5.774999969E-3
4.030393777E0,-1.374999993E-4,5.499999970E-4,-6.874999963E-3
4.032894313E0,2.062499989E-3,5.499999970E-4,-3.712499980E-3
4.035394700E0,-1.099999994E-3,5.499999970E-4,-2.612499986E-3
4.037895008E0,-1.099999994E-3,-5.499999970E-4,-5.499999970E-4
4.040395534E0,-1.099999994E-3,5.499999970E-4,-1.649999991E-3
4.042895844E0,2.062499989E-3,-1.649999991E-3,5.499999970E-4
4.045396227E0,9.624999948E-4,5.499999970E-4,-5.499999970E-4
4.047896536E0,9.624999948E-4,-5.499999970E-4,5.499999970E-4
4.050397073E0,2.062499989E-3,5.499999970E-4,3.712499980E-3
4.052897382E0,9.624999948E-4,5.499999970E-4,3.712499980E-3
4.055397765E0,9.624999948E-4,-5.499999970E-4,4.812499974E-3
4.057898075E0,9.624999948E-4,-5.499999970E-4,7.974999957E-3
4.060398611E0,2.062499989E-3,5.499999970E-4,6.874999963E-3
4.062898902E0,-1.374999993E-4,5.499999970E-4,1.017499994E-2
4.065399285E0,9.624999948E-4,5.499999970E-4,1.223750040E-2
4.067899594E0,9.624999948E-4,5.499999970E-4,1.443750039E-2
4.070400131E0,-1.374999993E-4,5.499999970E-4,1.539999992E-2
4.072900440E0,9.624999948E-4,1.649999991E-3,1.539999992E-2
4.075400823E0,9.624999948E-4,5.499999970E-4,1.869999990E-2
4.077901362E0,-1.099999994E-3,5.499999970E-4,1.869999990E-2
4.080401671E0,-1.374999993E-4,5.499999970E-4,1.869999990E-2
4.082902054E0,9.624999948E-4,-5.499999970E-4,1.966249943E-2
4.085402364E0,9.624999948E-4,5.499999970E-4,1.966249943E-2
4.087902900E0,-1.374999993E-4,5.499999970E-4,1.966249943E-2
4.090403210E0,9.624999948E-4,-5.499999970E-4,2.076249942E-2
4.092903597E0,9.624999948E-4,-5.499999970E-4,1.966249943E-2
4.095403907E0,2.062499989E-3,-5.499999970E-4,2.076249942E-2
4.097904443E0,9.624999948E-4,1.649999991E-3,1.966249943E-2
4.100404830E0,2.062499989E-3,5.499999970E-4,1.869999990E-2
4.102905138E0,2.062499989E-3,5.499999970E-4,1.966249943E-2
4.105405431E0,2.062499989E-3,-5.499999970E-4,1.966249943E-2
4.107905967E0,2.062499989E-3,5.499999970E-4,2.076249942E-2
4.110406277E0,9.624999948E-4,5.499999970E-4,2.076249942E-2
4.112906659E0,3.162499983E-3,1.649999991E-3,2.282499894E-2
4.115406974E0,2.062499989E-3,2.612499986E-3,2.076249942E-2
4.117907510E0,3.162499983E-3,5.499999970E-4,2.282499894E-2
4.120407897E0,-1.374999993E-4,-5.499999970E-4,2.186249942E-2
4.122908205E0,-1.374999993E-4,5.499999970E-4,2.282499894E-2
4.125408741E0,-1.374999993E-4,5.499999970E-4,1.966249943E-2
4.127909051E0,9.624999948E-4,1.649999991E-3,1.759999990E-2
4.130409434E0,-1.374999993E-4,-5.499999970E-4,1.966249943E-2
4.132909743E0,9.624999948E-4,1.649999991E-3,1.966249943E-2
4.135410280E0,2.062499989E-3,5.499999970E-4,1.759999990E-2
4.137910589E0,-1.374999993E-4,-5.499999970E-4,1.539999992E-2
4.140410972E0,-1.374999993E-4,5.499999970E-4,1.333750039E-2
4.142911511E0,9.624999948E-4,1.649999991E-3,1.113750041E-2
4.145411810E0,9.624999948E-4,-1.649999991E-3,9.074999951E-3
4.147912193E0,9.624999948E-4,-5.499999970E-4,9.074999951E-3
4.150412503E0,9.624999948E-4,5.499999970E-4,1.017499994E-2
4.152912810E0,9.624999948E-4,5.499999970E-4,9.074999951E-3
4.155413347E0,9.624999948E-4,-5.499999970E-4,7.974999957E-3
4.157913656E0,2.062499989E-3,5.499999970E-4,4.812499974E-3
4.160414039E0,-1.374999993E-4,-1.649999991E-3,5.912499968E-3
4.162914577E0,2.062499989E-3,1.649999991E-3,4.812499974E-3
4.165414964E0,9.624999948E-4,5.499999970E-4,3.712499980E-3
4.167915272E0,-1.374999993E-4,5.499999970E-4,3.712499980E-3
4.170415828E0,-1.374999993E-4,-5.499999970E-4,2.612499986E-3
4.172916138E0,-1.099999994E-3,5.499999970E-4,1.649999991E-3
4.175416446E0,-1.374999993E-4,5.499999970E-4,5.499999970E-4
4.177916828E0,9.624999948E-4,-5.499999970E-4,-3.712499980E-3
4.180417137E0,-1.374999993E-4,-5.499999970E-4,-3.712499980E-3
4.182917673E0,9.624999948E-4,5.499999970E-4,-5.774999969E-3
4.185418060E0,-1.374999993E-4,5.499999970E-4,-5.774999969E-3
4.187918368E0,-1.099999994E-3,-1.649999991E-3,-6.874999963E-3
4.190418904E0,-1.099999994E-3,-5.499999970E-4,-1.113750041E-2
4.192919234E0,-1.099999994E-3,5.499999970E-4,-1.113750041E-2
4.195419617E0,-1.374999993E-4,5.499999970E-4,-1.113750041E-2
4.197919926E0,-1.099999994E-3,-1.649999991E-3,-1.113750041E-2
4.200420463E0,9.624999948E-4,5.499999970E-4,-1.429999992E-2
4.202920767E0,-1.374999993E-4,5.499999970E-4,-1.113750041E-2
4.205421150E0,-3.299999982E-3,1.649999991E-3,-1.333750039E-2
4.207921460E0,-1.374999993E-4,5.499999970E-4,-1.333750039E-2
4.210421996E0,-1.374999993E-4,5.499999970E-4,-1.223750040E-2
4.212922320E0,2.062499989E-3,-5.499999970E-4,-1.223750040E-2
4.215422703E0,9.624999948E-4,5.499999970E-4,-1.333750039E-2
4.217923012E0,9.624999948E-4,5.499999970E-4,-1.223750040E-2
4.220423549E0,-1.374999993E-4,-1.649999991E-3,-1.333750039E-2
4.222923834E0,-1.099999994E-3,-5.499999970E-4,-1.223750040E-2
4.225424217E0,-1.099999994E-3,1.649999991E-3,-1.333750039E-2
4.227924755E0,-1.374999993E-4,5.499999970E-4,-1.539999992E-2
4.230425065E0,-1.374999993E-4,5.499999970E-4,-1.223750040E-2
4.232925448E0,-1.099999994E-3,5.499999970E-4,-1.429999992E-2
4.235425772E0,-1.374999993E-4,-5.499999970E-4,-1.539999992E-2
4.237926308E0,-1.374999993E-4,5.499999970E-4,-1.429999992E-2
4.240426618E0,-1.374999993E-4,5.499999970E-4,-1.429999992E-2
4.242927000E0,-1.374999993E-4,5.499999970E-4,-1.333750039E-2
4.245427330E0,-1.374999993E-4,-1.649999991E-3,-1.429999992E-2
4.247927866E0,-1.099999994E-3,5.499999970E-4,-1.429999992E-2
4.250428253E0,-1.099999994E-3,-5.499999970E-4,-1.003750041E-2
4.252928561E0,9.624999948E-4,5.499999970E-4,-1.113750041E-2
4.255429097E0,9.624999948E-4,5.499999970E-4,-9.074999951E-3
4.257929407E0,9.624999948E-4,-1.649999991E-3,-7.974999957E-3
4.260429790E0,-1.374999993E-4,-5.499999970E-4,-7.974999957E-3
4.262930099E0,2.062499989E-3,1.649999991E-3,-6.874999963E-3
4.265430645E0,2.062499989E-3,2.612499986E-3,-3.712499980E-3
4.267930954E0,-1.374999993E-4,-5.499999970E-4,-3.712499980E-3
4.270431337E0,9.624999948E-4,-5.499999970E-4,-2.612499986E-3
4.272931876E0,-1.374999993E-4,-5.499999970E-4,-2.612499986E-3
4.275432190E0,9.624999948E-4,-5.499999970E-4,-1.649999991E-3
4.277932498E0,-1.099999994E-3,-5.499999970E-4,-5.499999970E-4
4.280432881E0,-1.099999994E-3,5.499999970E-4,5.499999970E-4
4.282933190E0,9.624999948E-4,5.499999970E-4,-5.499999970E-4
4.285433703E0,9.624999948E-4,-5.499999970E-4,2.612499986E-3
4.287934012E0,-1.099999994E-3,-1.649999991E-3,1.649999991E-3
4.290434395E0,2.062499989E-3,5.499999970E-4,2.612499986E-3
4.292934705E0,9.624999948E-4,-1.649999991E-3,4.812499974E-3
4.295435241E0,-1.374999993E-4,5.499999970E-4,4.812499974E-3
4.297935633E0,-1.374999993E-4,5.499999970E-4,7.974999957E-3
4.300435941E0,9.624999948E-4,1.649999991E-3,6.874999963E-3
4.302936477E0,9.624999948E-4,5.499999970E-4,1.113750041E-2
4.305436787E0,9.624999948E-4,1.649999991E-3,1.223750040E-2
4.307937169E0,9.624999948E-4,5.499999970E-4,1.443750039E-2
4.310437479E0,9.624999948E-4,-1.649999991E-3,1.649999991E-2
4.312938015E0,2.062499989E-3,5.499999970E-4,1.649999991E-2
4.315438325E0,9.624999948E-4,5.499999970E-4,1.539999992E-2
4.317938708E0,-1.374999993E-4,5.499999970E-4,1.759999990E-2
4.320439246E0,9.624999948E-4,-5.499999970E-4,1.759999990E-2
4.322939556E0,2.062499989E-3,5.499999970E-4,1.759999990E-2
4.325439939E0,9.624999948E-4,-5.499999970E-4,1.759999990E-2
4.327940233E0,9.624999948E-4,1.649999991E-3,1.649999991E-2
4.330440770E0,9.624999948E-4,5.499999970E-4,1.869999990E-2
4.332941079E0,-1.374999993E-4,1.649999991E-3,1.869999990E-2
4.335441462E0,9.624999948E-4,-1.649999991E-3,1.539999992E-2
4.337941762E0,-1.374999993E-4,5.499999970E-4,1.869999990E-2
4.340442298E0,9.624999948E-4,5.499999970E-4,1.759999990E-2
4.342942608E0,9.624999948E-4,1.649999991E-3,1.759999990E-2
4.345442991E0,-1.374999993E-4,5.499999970E-4,2.076249942E-2
4.347943286E0,-1.374999993E-4,1.649999991E-3,2.076249942E-2
4.350443823E0,2.062499989E-3,5.499999970E-4,2.076249942E-2
4.352944132E0,9.624999948E-4,5.499999970E-4,2.186249942E-2
4.355444515E0,-1.374999993E-4,5.499999970E-4,2.186249942E-2
4.357944825E0,9.624999948E-4,-5.499999970E-4,2.282499894E-2
4.360445337E0,2.062499989E-3,1.649999991E-3,1.966249943E-2
4.362945724E0,9.624999948E-4,5.499999970E-4,1.869999990E-2
4.365446032E0,9.624999948E-4,5.499999970E-4,1.966249943E-2
4.367946568E0,2.062499989E-3,-5.499999970E-4,1.759999990E-2
4.370446878E0,3.162499983E-3,5.499999970E-4,1.539999992E-2
4.372947274E0,2.062499989E-3,5.499999970E-4,1.223750040E-2
4.375447584E0,2.062499989E-3,5.499999970E-4,1.223750040E-2
4.377948120E0,9.624999948E-4,1.649999991E-3,1.113750041E-2
4.380448430E0,9.624999948E-4,-5.499999970E-4,9.074999951E-3
4.382948813E0,-1.099999994E-3,5.499999970E-4,6.874999963E-3
4.385449122E0,-1.374999993E-4,5.499999970E-4,5.912499968E-3
4.387949659E0,9.624999948E-4,1.649999991E-3,5.912499968E-3
4.390449969E0,-1.374999993E-4,5.499999970E-4,4.812499974E-3
4.392950371E0,-1.374999993E-4,5.499999970E-4,1.649999991E-3
4.395450681E0,2.062499989E-3,1.649999991E-3,1.649999991E-3
4.397951217E0,9.624999948E-4,5.499999970E-4,-5.499999970E-4
4.400451527E0,-1.374999993E-4,1.649999991E-3,-1.649999991E-3
4.402951914E0,-1.374999993E-4,1.649999991E-3,-1.649999991E-3
4.405452452E0,9.624999948E-4,1.649999991E-3,-4.812499974E-3
4.407952762E0,-1.099999994E-3,1.649999991E-3,-6.874999963E-3
4.410453145E0,-1.374999993E-4,1.649999991E-3,-9.074999951E-3
4.412953454E0,9.624999948E-4,2.612499986E-3,-1.003750041E-2
4.415453972E0,2.062499989E-3,2.612499986E-3,-1.333750039E-2
4.417954281E0,-1.374999993E-4,1.649999991E-3,-1.539999992E-2
4.420454664E0,-1.374999993E-4,1.649999991E-3,-1.856249943E-2
4.422954974E0,-1.374999993E-4,3.712499980E-3,-2.186249942E-2
4.425455496E0,-1.099999994E-3,2.612499986E-3,-2.392499894E-2
4.427955806E0,-1.374999993E-4,2.612499986E-3,-2.612499893E-2
4.430456189E0,-2.199999988E-3,1.649999991E-3,-2.708750032E-2
4.432956498E0,-1.099999994E-3,1.649999991E-3,-2.818750031E-2
4.435457001E0,-1.099999994E-3,3.712499980E-3,-2.708750032E-2
4.437957310E0,-1.374999993E-4,1.649999991E-3,-3.024999984E-2
4.440457693E0,-1.099999994E-3,1.649999991E-3,-2.928750031E-2
4.442958003E0,-1.374999993E-4,2.612499986E-3,-3.135000169E-2
4.445458544E0,-1.099999994E-3,3.712499980E-3,-3.135000169E-2
4.447958931E0,-1.374999993E-4,1.649999991E-3,-3.135000169E-2
4.450459238E0,-1.099999994E-3,3.712499980E-3,-3.135000169E-2
4.452959775E0,-1.099999994E-3,6.874999963E-3,-3.355000168E-2
4.455460085E0,-1.374999993E-4,6.874999963E-3,-3.244999796E-2
4.457960496E0,-1.374999993E-4,2.612499986E-3,-3.244999796E-2
4.460460806E0,-1.099999994E-3,2.612499986E-3,-3.244999796E-2
4.462961342E0,9.624999948E-4,2.612499986E-3,-3.355000168E-2
4.465461652E0,9.624999948E-4,4.812499974E-3,-3.451250121E-2
4.467962020E0,9.624999948E-4,2.296249941E-2,-3.451250121E-2
4.470462558E0,9.624999948E-4,5.499999970E-4,-3.135000169E-2
4.472962868E0,-1.099999994E-3,-6.874999963E-3,-3.135000169E-2
4.475463251E0,-1.374999993E-4,6.874999963E-3,-3.244999796E-2
4.477963565E0,9.624999948E-4,7.974999957E-3,-3.024999984E-2
4.480464102E0,9.624999948E-4,-2.612499986E-3,-2.818750031E-2
4.482964411E0,-1.374999993E-4,1.649999991E-3,-2.612499893E-2
4.485464794E0,9.624999948E-4,3.712499980E-3,-2.502499893E-2
4.487965109E0,9.624999948E-4,3.712499980E-3,-2.282499894E-2
4.490465416E0,9.624999948E-4,2.612499986E-3,-2.076249942E-2
4.492966030E0,9.624999948E-4,3.712499980E-3,-1.539999992E-2
4.495466340E0,2.062499989E-3,1.649999991E-3,-1.429999992E-2
4.497966647E0,2.062499989E-3,1.649999991E-3,-1.223750040E-2
4.500467189E0,2.062499989E-3,5.912499968E-3,-9.074999951E-3
4.502967498E0,3.162499983E-3,5.912499968E-3,-6.874999963E-3
4.505467881E0,2.062499989E-3,1.649999991E-3,-5.774999969E-3
4.507968191E0,2.062499989E-3,3.712499980E-3,-3.712499980E-3
4.510468736E0,2.062499989E-3,3.712499980E-3,-2.612499986E-3
4.512969046E0,3.162499983E-3,3.712499980E-3,5.499999970E-4
4.515469428E0,3.162499983E-3,1.649999991E-3,5.499999970E-4
4.517969967E0,3.162499983E-3,2.612499986E-3,5.499999970E-4
4.520470297E0,3.162499983E-3,1.649999991E-3,3.712499980E-3
4.522970679E0,3.162499983E-3,1.649999991E-3,4.812499974E-3
4.525470989E0,2.062499989E-3,1.649999991E-3,6.874999963E-3
4.527971297E0,3.162499983E-3,4.812499974E-3,7.974999957E-3
4.530471822E0,3.162499983E-3,2.612499986E-3,1.113750041E-2
4.532972209E0,4.124999978E-3,1.649999991E-3,1.443750039E-2
4.535472745E0,2.062499989E-3,4.812499974E-3,1.539999992E-2
4.537973055E0,4.124999978E-3,4.812499974E-3,1.759999990E-2
4.540473438E0,2.062499989E-3,4.812499974E-3,2.282499894E-2
4.542973732E0,3.162499983E-3,2.612499986E-3,2.502499893E-2
4.545474269E0,4.124999978E-3,4.812499974E-3,2.612499893E-2
4.547974578E0,3.162499983E-3,5.912499968E-3,2.928750031E-2
4.550474961E0,3.162499983E-3,5.912499968E-3,2.928750031E-2
4.552975276E0,4.124999978E-3,4.812499974E-3,3.135000169E-2
4.555475583E0,4.124999978E-3,3.712499980E-3,3.244999796E-2
4.557976120E0,3.162499983E-3,3.712499980E-3,3.244999796E-2
4.560476507E0,4.124999978E-3,3.712499980E-3,3.355000168E-2
4.562976795E0,3.162499983E-3,4.812499974E-3,3.464999795E-2
4.565477332E0,3.162499983E-3,3.712499980E-3,3.355000168E-2
4.567977641E0,4.124999978E-3,1.649999991E-3,3.464999795E-2
4.570478024E0,3.162499983E-3,1.649999991E-3,3.355000168E-2
4.572978334E0,4.124999978E-3,4.812499974E-3,3.464999795E-2
4.575478880E0,3.162499983E-3,4.812499974E-3,3.561250120E-2
4.577979190E0,3.162499983E-3,2.612499986E-3,3.671250120E-2
4.580479572E0,3.162499983E-3,2.612499986E-3,3.561250120E-2
4.582980111E0,4.124999978E-3,3.712499980E-3,3.561250120E-2
4.585480425E0,2.062499989E-3,3.712499980E-3,3.671250120E-2
4.587980807E0,3.162499983E-3,4.812499974E-3,3.781250119E-2
4.590481117E0,2.062499989E-3,4.812499974E-3,3.781250119E-2
4.592981425E0,4.124999978E-3,4.812499974E-3,3.891250119E-2
4.595481961E0,3.162499983E-3,2.612499986E-3,3.781250119E-2
4.597982291E0,3.162499983E-3,3.712499980E-3,3.781250119E-2
4.600482673E0,3.162499983E-3,4.812499974E-3,3.671250120E-2
4.602983212E0,3.162499983E-3,5.912499968E-3,3.671250120E-2
4.605483522E0,2.062499989E-3,3.712499980E-3,3.355000168E-2
4.607983923E0,3.162499983E-3,3.712499980E-3,3.355000168E-2
4.610484233E0,2.062499989E-3,3.712499980E-3,3.244999796E-2
4.612984769E0,2.062499989E-3,5.912499968E-3,2.818750031E-2
4.615485079E0,9.624999948E-4,1.649999991E-3,2.612499893E-2
4.617985481E0,3.162499983E-3,3.712499980E-3,2.502499893E-2
4.620485790E0,3.162499983E-3,2.612499986E-3,2.186249942E-2
4.622986327E0,4.124999978E-3,1.649999991E-3,2.186249942E-2
4.625486714E0,2.062499989E-3,2.612499986E-3,2.076249942E-2
4.627987006E0,2.062499989E-3,1.649999991E-3,1.869999990E-2
4.630487543E0,2.062499989E-3,1.649999991E-3,1.759999990E-2
4.632987852E0,3.162499983E-3,1.649999991E-3,1.759999990E-2
4.635488235E0,9.624999948E-4,2.612499986E-3,1.649999991E-2
4.637988550E0,2.062499989E-3,4.812499974E-3,1.333750039E-2
4.640489086E0,3.162499983E-3,3.712499980E-3,1.333750039E-2
4.642989396E0,2.062499989E-3,2.612499986E-3,1.223750040E-2
4.645489704E0,2.062499989E-3,3.712499980E-3,1.017499994E-2
4.647990322E0,2.062499989E-3,3.712499980E-3,7.974999957E-3
4.650490632E0,9.624999948E-4,2.612499986E-3,4.812499974E-3
4.652990939E0,2.062499989E-3,2.612499986E-3,2.612499986E-3
4.655491322E0,2.062499989E-3,1.649999991E-3,-1.649999991E-3
4.657991632E0,2.062499989E-3,1.649999991E-3,-4.812499974E-3
4.660492154E0,9.624999948E-4,2.612499986E-3,-7.974999957E-3
4.662992464E0,3.162499983E-3,1.649999991E-3,-1.003750041E-2
4.665492846E0,2.062499989E-3,2.612499986E-3,-1.113750041E-2
4.667993156E0,3.162499983E-3,-5.499999970E-4,-1.649999991E-2
4.670493702E0,2.062499989E-3,-5.499999970E-4,-1.649999991E-2
4.672994088E0,2.062499989E-3,5.499999970E-4,-1.759999990E-2
4.675494396E0,3.162499983E-3,2.612499986E-3,-1.966249943E-2
4.677994932E0,3.162499983E-3,5.499999970E-4,-2.186249942E-2
4.680495247E0,3.162499983E-3,5.499999970E-4,-2.186249942E-2
4.682995630E0,2.062499989E-3,1.649999991E-3,-2.282499894E-2
4.685495939E0,2.062499989E-3,1.649999991E-3,-2.612499893E-2
4.687996476E0,3.162499983E-3,5.499999970E-4,-2.708750032E-2
4.690496791E0,2.062499989E-3,2.612499986E-3,-2.818750031E-2
4.692997173E0,4.124999978E-3,2.612499986E-3,-2.818750031E-2
4.695497712E0,2.062499989E-3,1.649999991E-3,-3.024999984E-2
4.697998021E0,2.062499989E-3,2.612499986E-3,-3.244999796E-2
4.700498329E0,3.162499983E-3,2.612499986E-3,-3.451250121E-2
4.702998712E0,2.062499989E-3,1.649999991E-3,-3.561250120E-2
4.705499021E0,2.062499989E-3,-5.499999970E-4,-3.877500072E-2
4.707999558E0,3.162499983E-3,1.649999991E-3,-3.877500072E-2
4.710499868E0,2.062499989E-3,5.499999970E-4,-3.987500072E-2
4.713000264E0,4.124999978E-3,5.499999970E-4,-4.207500070E-2
4.715500574E0,2.062499989E-3,5.499999970E-4,-4.097500071E-2
4.718001110E0,4.124999978E-3,-5.499999970E-4,-4.207500070E-2
4.720501497E0,3.162499983E-3,-5.499999970E-4,-4.207500070E-2
4.723001805E0,3.162499983E-3,-1.649999991E-3,-4.207500070E-2
4.725502327E0,4.124999978E-3,-5.499999970E-4,-4.207500070E-2
4.728002637E0,3.162499983E-3,-5.499999970E-4,-3.877500072E-2
4.730503019E0,9.624999948E-4,-1.649999991E-3,-3.987500072E-2
4.733003329E0,2.062499989E-3,-1.649999991E-3,-3.781250119E-2
4.735503875E0,3.162499983E-3,5.499999970E-4,-3.781250119E-2
4.738004184E0,3.162499983E-3,5.499999970E-4,-3.781250119E-2
4.740504567E0,2.062499989E-3,-5.499999970E-4,-3.561250120E-2
4.743005105E0,2.062499989E-3,-1.649999991E-3,-3.671250120E-2
4.745505396E0,2.062499989E-3,5.499999970E-4,-3.781250119E-2
4.748005779E0,2.062499989E-3,-5.499999970E-4,-3.561250120E-2
4.750506088E0,2.062499989E-3,1.649999991E-3,-3.451250121E-2
4.753006625E0,2.062499989E-3,5.499999970E-4,-3.451250121E-2
4.755506930E0,9.624999948E-4,-5.499999970E-4,-3.451250121E-2
4.758007312E0,3.162499983E-3,-2.612499986E-3,-3.244999796E-2
4.760507622E0,9.624999948E-4,-5.499999970E-4,-2.928750031E-2
4.763008158E0,-1.374999993E-4,5.499999970E-4,-2.928750031E-2
4.765508449E0,9.624999948E-4,5.499999970E-4,-2.612499893E-2
4.768008832E0,-1.374999993E-4,-1.649999991E-3,-2.612499893E-2
4.770509141E0,-1.374999993E-4,-5.499999970E-4,-2.076249942E-2
4.773009678E0,9.624999948E-4,-1.649999991E-3,-2.186249942E-2
4.775509988E0,9.624999948E-4,-5.499999970E-4,-1.759999990E-2
4.778010370E0,9.624999948E-4,-5.499999970E-4,-1.539999992E-2
4.780510680E0,-1.374999993E-4,-1.649999991E-3,-1.333750039E-2
4.783011216E0,-1.374999993E-4,-1.649999991E-3,-7.974999957E-3
4.785511603E0,-1.374999993E-4,-5.499999970E-4,-7.974999957E-3
4.788011896E0,9.624999948E-4,5.499999970E-4,-4.812499974E-3
4.790512432E0,-1.099999994E-3,-1.649999991E-3,-4.812499974E-3
4.793012742E0,-1.374999993E-4,5.499999970E-4,-2.612499986E-3
4.795513124E0,-1.099999994E-3,-1.649999991E-3,5.499999970E-4
4.798013420E0,-1.099999994E-3,-1.649999991E-3,1.649999991E-3
4.800513957E0,-1.099999994E-3,5.499999970E-4,4.812499974E-3
4.803014266E0,-1.099999994E-3,-2.612499986E-3,3.712499980E-3
4.805514649E0,-2.199999988E-3,-5.499999970E-4,7.974999957E-3
4.808014964E0,-3.299999982E-3,-3.712499980E-3,9.074999951E-3
4.810515500E0,-3.299999982E-3,-1.649999991E-3,1.333750039E-2
4.813015810E0,-2.199999988E-3,-5.499999970E-4,1.333750039E-2
4.815516192E0,-2.199999988E-3,-1.649999991E-3,1.649999991E-2
4.818016502E0,-2.199999988E-3,-3.712499980E-3,2.076249942E-2
4.820517024E0,-2.199999988E-3,-1.649999991E-3,2.282499894E-2
4.823017333E0,-3.299999982E-3,-1.649999991E-3,2.612499893E-2
4.825517716E0,-5.362499971E-3,-5.499999970E-4,2.928750031E-2
4.828018254E0,-2.199999988E-3,-2.612499986E-3,2.928750031E-2
4.830518564E0,-2.199999988E-3,-2.612499986E-3,3.135000169E-2
4.833018947E0,-3.299999982E-3,-2.612499986E-3,3.355000168E-2
4.835519256E0,-3.299999982E-3,-3.712499980E-3,3.355000168E-2
4.838019793E0,-3.299999982E-3,-5.499999970E-4,3.464999795E-2
4.840520089E0,-3.299999982E-3,-2.612499986E-3,3.464999795E-2
4.843020471E0,-3.299999982E-3,-2.612499986E-3,3.671250120E-2
4.845520781E0,-4.399999976E-3,-2.612499986E-3,3.671250120E-2
4.848021317E0,-3.299999982E-3,-2.612499986E-3,3.781250119E-2
4.850521608E0,-5.362499971E-3,-1.649999991E-3,3.781250119E-2
4.853021991E0,-4.399999976E-3,-1.649999991E-3,3.987500072E-2
4.855522529E0,-4.399999976E-3,-3.712499980E-3,3.987500072E-2
4.858022839E0,-3.299999982E-3,-1.649999991E-3,4.097500071E-2
4.860523147E0,-4.399999976E-3,-3.712499980E-3,4.207500070E-2
4.863023524E0,-3.299999982E-3,-5.499999970E-4,4.413750023E-2
4.865523834E0,-3.299999982E-3,-3.712499980E-3,4.413750023E-2
4.868024370E0,-2.199999988E-3,-1.649999991E-3,4.317500070E-2
4.870524680E0,-3.299999982E-3,-2.612499986E-3,4.413750023E-2
4.873025063E0,-2.199999988E-3,-2.612499986E-3,4.633750021E-2
4.875525601E0,-2.199999988E-3,-2.612499986E-3,4.317500070E-2
4.878025911E0,-2.199999988E-3,-2.612499986E-3,4.317500070E-2
4.880526293E0,-2.199999988E-3,-3.712499980E-3,4.207500070E-2
4.883026617E0,-2.199999988E-3,-2.612499986E-3,4.207500070E-2
4.885527154E0,-4.399999976E-3,-3.712499980E-3,3.987500072E-2
4.888027463E0,-2.199999988E-3,-2.612499986E-3,3.671250120E-2
4.890527846E0,-2.199999988E-3,-2.612499986E-3,3.671250120E-2
4.893028166E0,-2.199999988E-3,-1.649999991E-3,3.561250120E-2
4.895528702E0,-2.199999988E-3,-4.812499974E-3,3.355000168E-2
4.898029012E0,-1.099999994E-3,-3.712499980E-3,3.135000169E-2
4.900529394E0,-2.199999988E-3,-3.712499980E-3,3.135000169E-2
4.903029704E0,-2.199999988E-3,-3.712499980E-3,2.818750031E-2
4.905530250E0,-2.199999988E-3,-2.612499986E-3,2.818750031E-2
4.908030559E0,-2.199999988E-3,-4.812499974E-3,2.612499893E-2
4.910530942E0,-2.199999988E-3,-3.712499980E-3,2.502499893E-2
4.913031252E0,-1.099999994E-3,-2.612499986E-3,2.502499893E-2
4.915531803E0,-1.099999994E-3,-4.812499974E-3,2.076249942E-2
4.918032113E0,-1.099999994E-3,-5.499999970E-4,1.966249943E-2
4.920532726E0,-1.099999994E-3,-4.812499974E-3,1.869999990E-2
4.923033036E0,-2.199999988E-3,-2.612499986E-3,1.539999992E-2
4.925533358E0,-1.374999993E-4,-3.712499980E-3,1.223750040E-2
4.928033740E0,-1.374999993E-4,-2.612499986E-3,1.017499994E-2
4.930534050E0,-1.099999994E-3,-1.649999991E-3,6.874999963E-3
4.933034586E0,-2.199999988E-3,-3.712499980E-3,4.812499974E-3
4.935534901E0,-1.099999994E-3,-1.649999991E-3,2.612499986E-3
4.938035284E0,-2.199999988E-3,-2.612499986E-3,-5.499999970E-4
4.940535822E0,-1.374999993E-4,-1.649999991E-3,-3.712499980E-3
4.943036132E0,-1.374999993E-4,-4.812499974E-3,-6.874999963E-3
4.945536514E0,-1.099999994E-3,-3.712499980E-3,-9.074999951E-3
4.948036824E0,-1.099999994E-3,-2.612499986E-3,-1.113750041E-2
4.950537132E0,-3.299999982E-3,-2.612499986E-3,-1.223750040E-2
4.953037668E0,-3.299999982E-3,-5.499999970E-4,-1.429999992E-2
4.955537978E0,-1.099999994E-3,-3.712499980E-3,-1.759999990E-2
4.958038366E0,-1.374999993E-4,-1.649999991E-3,-1.649999991E-2
4.960538675E0,-3.299999982E-3,-1.649999991E-3,-1.966249943E-2
4.963039212E0,-2.199999988E-3,5.499999970E-4,-2.186249942E-2
