"Time (s)","Acceleration x (m/s^2)","Acceleration y (m/s^2)","Acceleration z (m/s^2)"
2.569727900E-2,-4.395000264E-2,-5.400000140E-2,9.846000671E0
2.820477600E-2,-1.695000008E-2,-9.000000544E-3,9.841050148E0
3.071308400E-2,-4.095000029E-2,-2.100000158E-2,9.825000763E0
3.321685500E-2,-5.100000277E-2,-4.005000368E-2,9.826950073E0
3.571749400E-2,-4.905000329E-2,-4.905000329E-2,9.820050240E0
3.821780200E-2,-2.895000204E-2,-3.495000303E-2,9.829050064E0
4.071841700E-2,-5.295000225E-2,1.395000052E-2,9.826950073E0
4.321895600E-2,-9.600000083E-2,1.395000052E-2,9.846000671E0
4.571934000E-2,-1.080000028E-1,0.000000000E0,9.856050491E0
4.821994900E-2,-1.129500046E-1,1.905000024E-2,9.835950851E0
5.072048900E-2,-1.369500011E-1,-9.000000544E-3,9.829050064E0
5.322087400E-2,-1.590000093E-1,-9.000000544E-3,9.822000504E0
5.572141000E-2,-1.900500059E-1,1.905000024E-2,9.829050064E0
5.822203000E-2,-2.520000041E-1,1.905000024E-2,9.820050240E0
6.072241600E-2,-2.620500028E-1,4.305000231E-2,9.838950157E0
6.322295300E-2,-2.500500083E-1,2.205000073E-2,9.829050064E0
6.572356800E-2,-2.419500053E-1,-6.000000052E-3,9.826950073E0
6.822398400E-2,-2.419500053E-1,7.050000131E-3,9.841050148E0
7.072452000E-2,-2.520000041E-1,-2.100000158E-2,9.850950241E0
7.322513600E-2,-2.400000095E-1,-1.605000161E-2,9.844050407E0
7.572552200E-2,-2.400000095E-1,-2.100000158E-2,9.844050407E0
7.822610200E-2,-2.470500171E-1,-1.605000161E-2,9.825000763E0
8.072648800E-2,-2.689500153E-1,-9.000000544E-3,9.832050323E0
8.322702500E-2,-2.520000041E-1,-1.050000079E-3,9.834000587E0
8.572764000E-2,-2.590500116E-1,1.950000064E-3,9.814950943E0
8.822802700E-2,-2.470500171E-1,2.205000073E-2,9.817050934E0
9.072855300E-2,-2.639999986E-1,3.600000218E-2,9.826950073E0
9.322916900E-2,-2.620500028E-1,5.295000225E-2,9.814950943E0
9.572955500E-2,-3.120000064E-1,8.595000207E-2,9.825000763E0
9.823009200E-2,-2.880000174E-1,9.600000083E-2,9.838950157E0
1.007307260E-1,-2.689500153E-1,1.120500043E-1,9.826950073E0
1.032311130E-1,-2.329500169E-1,1.009500027E-1,9.814950943E0
1.057316490E-1,-2.539499998E-1,9.105000645E-2,9.810000420E0
1.082322650E-1,-2.689500153E-1,9.600000083E-2,9.813000679E0
1.107326750E-1,-2.419500053E-1,1.080000028E-1,9.846000671E0
1.132332120E-1,-2.569500208E-1,1.120500043E-1,9.838950157E0
1.157338270E-1,-2.260500044E-1,1.030500084E-1,9.844050407E0
1.182342140E-1,-2.020500153E-1,7.905000448E-2,9.838950157E0
1.207347500E-1,-1.729500145E-1,7.200000435E-2,9.838950157E0
1.232351320E-1,-1.279500127E-1,7.200000435E-2,9.826950073E0
1.257357450E-1,-1.080000028E-1,5.295000225E-2,9.826950073E0
1.282362860E-1,-1.039500013E-1,3.795000166E-2,9.834000587E0
1.307366700E-1,-9.900000691E-2,3.105000220E-2,9.832050323E0
1.332372840E-1,-5.595000088E-2,3.299999982E-2,9.846000671E0
1.357378380E-1,-4.605000094E-2,1.950000064E-3,9.844050407E0
1.382382230E-1,-1.500000060E-2,0.000000000E0,9.832050323E0
1.407387590E-1,-1.695000008E-2,7.050000131E-3,9.832050323E0
1.432393750E-1,-2.205000073E-2,-1.605000161E-2,9.859950066E0
1.457397850E-1,-3.705000132E-2,-9.000000544E-3,9.838950157E0
1.482403990E-1,-3.705000132E-2,-9.000000544E-3,9.847950935E0
1.507407080E-1,-2.505000122E-2,0.000000000E0,9.868050575E0
1.532413220E-1,-4.950000439E-3,4.950000439E-3,9.834000587E0
1.557418550E-1,-1.695000008E-2,-1.050000079E-3,9.829050064E0
1.582424710E-1,-1.695000008E-2,-9.000000544E-3,9.838950157E0
1.607428570E-1,-3.195000067E-2,2.595000155E-2,9.844050407E0
1.632434710E-1,-3.405000269E-2,7.050000131E-3,9.829050064E0
1.657437750E-1,-5.805000290E-2,3.105000220E-2,9.858000755E0
1.682443890E-1,-6.495000422E-2,5.295000225E-2,9.859950066E0
1.707449270E-1,-5.295000225E-2,6.195000187E-2,9.850950241E0
1.732453140E-1,-3.405000269E-2,8.100000024E-2,9.834000587E0
1.757459270E-1,-4.395000264E-2,7.395000011E-2,9.810000420E0
1.782464830E-1,-5.295000225E-2,8.400000632E-2,9.826950073E0
1.807468670E-1,-4.605000094E-2,8.100000024E-2,9.846000671E0
1.832474810E-1,-7.695000619E-2,8.400000632E-2,9.844050407E0
1.857480210E-1,-9.195000678E-2,8.895000070E-2,9.846000671E0
1.882484010E-1,-3.195000067E-2,4.305000231E-2,9.844050407E0
1.907490140E-1,-2.700000070E-2,2.595000155E-2,9.835950851E0
1.932495550E-1,-1.695000008E-2,3.105000220E-2,9.813000679E0
1.957499390E-1,-3.195000067E-2,1.395000052E-2,9.850950241E0
1.982505380E-1,-3.195000067E-2,-4.050000105E-3,9.847950935E0
2.007510780E-1,-1.500000060E-2,-2.505000122E-2,9.862950325E0
2.032514630E-1,-4.950000439E-3,-4.500000179E-2,9.870000839E0
2.057520760E-1,7.950000465E-3,-5.700000376E-2,9.856050491E0
2.082525930E-1,3.000000026E-3,-5.400000140E-2,9.841050148E0
2.107529770E-1,1.005000062E-2,-4.500000179E-2,9.835950851E0
2.132535140E-1,2.205000073E-2,-3.299999982E-2,9.835950851E0
2.157541290E-1,3.900000080E-2,-4.005000368E-2,9.835950851E0
2.182545160E-1,2.505000122E-2,-3.495000303E-2,9.871950150E0
2.207550570E-1,1.305000018E-2,-3.299999982E-2,9.883950233E0
2.232556730E-1,1.305000018E-2,-3.000000119E-2,9.886950493E0
2.257560590E-1,3.900000080E-2,0.000000000E0,9.850950241E0
2.282565960E-1,6.300000101E-2,-1.305000018E-2,9.826950073E0
2.307572210E-1,5.805000290E-2,-6.000000052E-3,9.817050934E0
2.332576080E-1,5.100000277E-2,-2.505000122E-2,9.832050323E0
2.357581440E-1,1.500000060E-2,1.950000064E-3,9.862950325E0
2.382585310E-1,7.950000465E-3,1.200000010E-2,9.889050484E0
2.407591440E-1,1.500000060E-2,3.105000220E-2,9.877050400E0
2.432596560E-1,3.000000026E-3,2.595000155E-2,9.856050491E0
2.457600400E-1,-7.950000465E-3,2.895000204E-2,9.834000587E0
2.482605770E-1,-3.000000026E-3,2.895000204E-2,9.832050323E0
2.507611920E-1,-2.505000122E-2,2.895000204E-2,9.847950935E0
2.532615740E-1,-3.705000132E-2,4.500000179E-2,9.850950241E0
2.557621100E-1,-5.100000277E-2,7.200000435E-2,9.870000839E0
2.582627260E-1,-4.905000329E-2,7.695000619E-2,9.865050316E0
2.607631120E-1,-5.595000088E-2,8.595000207E-2,9.844050407E0
2.632636390E-1,-3.705000132E-2,8.595000207E-2,9.832050323E0
2.657642540E-1,-3.705000132E-2,1.009500027E-1,9.820050240E0
2.682646410E-1,-4.905000329E-2,7.905000448E-2,9.835950851E0
2.707651770E-1,-6.000000238E-2,7.905000448E-2,9.856050491E0
2.732657640E-1,-8.400000632E-2,6.195000187E-2,9.874950409E0
2.757661500E-1,-8.700000495E-2,4.305000231E-2,9.858000755E0
2.782666870E-1,-6.300000101E-2,4.305000231E-2,9.835950851E0
2.807673020E-1,-6.495000422E-2,1.395000052E-2,9.817050934E0
2.832676890E-1,-7.695000619E-2,-2.805000171E-2,9.798000336E0
2.857682010E-1,-8.205000311E-2,-6.795000285E-2,9.825000763E0
2.882688170E-1,-8.895000070E-2,-7.995000482E-2,9.850950241E0
2.907692030E-1,-9.405000508E-2,-7.304999977E-2,9.871950150E0
2.932697400E-1,-1.129500046E-1,-8.805000782E-2,9.871950150E0
2.957703460E-1,-9.195000678E-2,-8.505000174E-2,9.871950150E0
2.982707330E-1,-7.200000435E-2,-9.495000541E-2,9.834000587E0
3.007712690E-1,-9.195000678E-2,-1.120500043E-1,9.820050240E0
3.032718850E-1,-9.405000508E-2,-1.039500013E-1,9.835950851E0
3.057722610E-1,-1.110000089E-1,-8.295000345E-2,9.850950241E0
3.082727980E-1,-1.279500127E-1,-7.095000148E-2,9.859950066E0
3.107734130E-1,-1.630500108E-1,-3.000000119E-2,9.859950066E0
3.132738000E-1,-1.300500035E-1,-3.705000132E-2,9.841050148E0
3.157743020E-1,-1.159500033E-1,-3.495000303E-2,9.820050240E0
3.182746890E-1,-1.369500011E-1,-1.605000161E-2,9.826950073E0
3.207752250E-1,-1.680000126E-1,-2.505000122E-2,9.838950157E0
3.232758410E-1,-1.560000032E-1,0.000000000E0,9.844050407E0
3.257762220E-1,-1.540500075E-1,1.695000008E-2,9.862950325E0
3.282767590E-1,-1.560000032E-1,3.299999982E-2,9.853050232E0
3.307773740E-1,-1.390500069E-1,2.895000204E-2,9.829050064E0
3.332777610E-1,-1.159500033E-1,3.795000166E-2,9.832050323E0
3.357782970E-1,-1.319999993E-1,3.600000218E-2,9.829050064E0
3.382789230E-1,-1.609500051E-1,2.205000073E-2,9.832050323E0
3.407793090E-1,-1.200000048E-1,4.500000179E-2,9.835950851E0
3.432798460E-1,-1.159500033E-1,3.600000218E-2,9.858000755E0
3.457804610E-1,-1.129500046E-1,4.995000362E-2,9.868050575E0
3.482808340E-1,-1.039500013E-1,3.299999982E-2,9.858000755E0
3.507813700E-1,-5.295000225E-2,2.400000021E-2,9.856050491E0
3.532817570E-1,-2.700000070E-2,1.005000062E-2,9.838950157E0
3.557823700E-1,-1.695000008E-2,-1.605000161E-2,9.847950935E0
3.582829060E-1,-2.895000204E-2,-1.305000018E-2,9.846000671E0
3.607832900E-1,-2.895000204E-2,-3.000000119E-2,9.862950325E0
3.632839040E-1,-3.405000269E-2,-4.695000127E-2,9.871950150E0
3.657844440E-1,-1.695000008E-2,-4.200000316E-2,9.856050491E0
3.682848430E-1,1.050000079E-3,-5.700000376E-2,9.829050064E0
3.707854560E-1,6.000000052E-3,-9.000000358E-2,9.826950073E0
3.732859970E-1,-1.995000057E-2,-1.039500013E-1,9.850950241E0
3.757863810E-1,-1.995000057E-2,-7.995000482E-2,9.846000671E0
3.782869950E-1,-1.695000008E-2,-8.505000174E-2,9.865050316E0
3.807875350E-1,-3.405000269E-2,-5.895000324E-2,9.858000755E0
3.832879200E-1,-6.495000422E-2,-5.400000140E-2,9.846000671E0
3.857885330E-1,-4.395000264E-2,-6.599999964E-2,9.841050148E0
3.882890450E-1,-4.395000264E-2,-6.405000389E-2,9.829050064E0
3.907894290E-1,-6.000000238E-2,-4.500000179E-2,9.822000504E0
3.932900430E-1,-7.500000298E-2,-1.305000018E-2,9.850950241E0
3.957903520E-1,-1.080000028E-1,1.005000062E-2,9.853050232E0
3.982909660E-1,-1.080000028E-1,3.105000220E-2,9.865050316E0
4.007914900E-1,-7.995000482E-2,2.895000204E-2,9.870000839E0
4.032918770E-1,-4.395000264E-2,2.400000021E-2,9.841050148E0
4.057924900E-1,-1.695000008E-2,4.305000231E-2,9.822000504E0
4.082930310E-1,-4.905000329E-2,4.305000231E-2,9.829050064E0
4.107934150E-1,-4.095000029E-2,4.095000029E-2,9.856050491E0
4.132940290E-1,-2.895000204E-2,6.000000238E-2,9.850950241E0
4.157945690E-1,-1.005000062E-2,5.505000427E-2,9.856050491E0
4.182949540E-1,-2.505000122E-2,6.705000252E-2,9.856050491E0
4.207955670E-1,-2.505000122E-2,7.905000448E-2,9.858000755E0
4.232961080E-1,-2.205000073E-2,8.400000632E-2,9.838950157E0
4.257964920E-1,-1.050000079E-3,6.705000252E-2,9.856050491E0
4.282971060E-1,-3.195000067E-2,7.905000448E-2,9.853050232E0
4.307976460E-1,-5.295000225E-2,8.895000070E-2,9.832050323E0
4.332980260E-1,-6.795000285E-2,8.595000207E-2,9.856050491E0
4.357986390E-1,-8.700000495E-2,9.105000645E-2,9.838950157E0
4.382991790E-1,-7.995000482E-2,5.505000427E-2,9.844050407E0
4.407995640E-1,-3.195000067E-2,5.505000427E-2,9.826950073E0
4.433001860E-1,-6.300000101E-2,4.500000179E-2,9.829050064E0
4.458007270E-1,-1.080000028E-1,3.105000220E-2,9.856050491E0
4.483011120E-1,-1.159500033E-1,2.205000073E-2,9.870000839E0
4.508017250E-1,-9.405000508E-2,2.400000021E-2,9.856050491E0
4.533022650E-1,-6.795000285E-2,-9.000000544E-3,9.838950157E0
4.558026500E-1,-8.205000311E-2,-3.495000303E-2,9.829050064E0
4.583032630E-1,-7.695000619E-2,-3.299999982E-2,9.829050064E0
4.608038040E-1,-8.400000632E-2,-4.500000179E-2,9.838950157E0
4.633041890E-1,-9.405000508E-2,-4.005000368E-2,9.838950157E0
4.658048120E-1,-1.060500070E-1,-2.100000158E-2,9.871950150E0
4.683051220E-1,-1.279500127E-1,-3.299999982E-2,9.859950066E0
4.708057350E-1,-1.350000054E-1,-4.200000316E-2,9.868050575E0
4.733062730E-1,-1.390500069E-1,-3.705000132E-2,9.853050232E0
4.758068790E-1,-1.230000034E-1,-4.200000316E-2,9.832050323E0
4.783072660E-1,-1.159500033E-1,-2.505000122E-2,9.814950943E0
4.808078020E-1,-1.350000054E-1,-9.000000544E-3,9.834000587E0
4.833081890E-1,-1.560000032E-1,-6.000000052E-3,9.850950241E0
4.858088310E-1,-1.630500108E-1,4.950000439E-3,9.850950241E0
4.883093710E-1,-1.300500035E-1,1.905000024E-2,9.856050491E0
4.908097560E-1,-1.369500011E-1,5.295000225E-2,9.853050232E0
4.933103690E-1,-1.230000034E-1,4.800000042E-2,9.853050232E0
4.958108960E-1,-1.390500069E-1,7.695000619E-2,9.834000587E0
4.983112810E-1,-1.540500075E-1,8.400000632E-2,9.832050323E0
5.008118940E-1,-1.540500075E-1,7.200000435E-2,9.847950935E0
5.033124340E-1,-1.319999993E-1,9.105000645E-2,9.841050148E0
5.058128190E-1,-1.230000034E-1,1.050000042E-1,9.853050232E0
5.083134270E-1,-1.180500090E-1,1.099500060E-1,9.859950066E0
5.108139680E-1,-9.405000508E-2,1.080000028E-1,9.841050148E0
5.133143530E-1,-6.795000285E-2,8.595000207E-2,9.825000763E0
5.158149660E-1,-5.805000290E-2,7.905000448E-2,9.844050407E0
5.183154870E-1,-7.695000619E-2,7.200000435E-2,9.835950851E0
5.208158720E-1,-7.695000619E-2,5.700000376E-2,9.877050400E0
5.233164080E-1,-6.300000101E-2,3.795000166E-2,9.871950150E0
5.258170240E-1,-4.605000094E-2,1.905000024E-2,9.858000755E0
5.283174050E-1,-1.050000079E-3,-1.050000079E-3,9.822000504E0
5.308179420E-1,-1.050000079E-3,-6.000000052E-3,9.814950943E0
5.333185570E-1,-7.950000465E-3,-1.095000096E-2,9.859950066E0
5.358189440E-1,-2.505000122E-2,-2.505000122E-2,9.859950066E0
5.383194650E-1,-2.700000070E-2,-3.000000119E-2,9.886950493E0
5.408200810E-1,-1.500000060E-2,-3.299999982E-2,9.874950409E0
5.433204670E-1,-1.305000018E-2,-2.505000122E-2,9.844050407E0
5.458210040E-1,-1.995000057E-2,-6.000000052E-3,9.835950851E0
5.483216190E-1,-3.900000080E-2,1.950000064E-3,9.826950073E0
5.508220060E-1,-5.805000290E-2,2.400000021E-2,9.832050323E0
5.533225420E-1,-8.400000632E-2,3.795000166E-2,9.847950935E0
5.558231580E-1,-1.039500013E-1,1.695000008E-2,9.846000671E0
5.583235590E-1,-1.560000032E-1,2.595000155E-2,9.856050491E0
5.608240960E-1,-1.540500075E-1,4.305000231E-2,9.847950935E0
5.633244820E-1,-1.560000032E-1,5.700000376E-2,9.832050323E0
5.658250960E-1,-1.630500108E-1,6.705000252E-2,9.832050323E0
5.683256360E-1,-1.920000017E-1,7.395000011E-2,9.817050934E0
5.708260060E-1,-2.110500038E-1,5.700000376E-2,9.835950851E0
5.733265420E-1,-2.230500132E-1,4.305000231E-2,9.868050575E0
5.758271580E-1,-2.400000095E-1,7.200000435E-2,9.858000755E0
5.783275440E-1,-2.209500074E-1,7.395000011E-2,9.844050407E0
5.808280670E-1,-2.299500108E-1,6.495000422E-2,9.825000763E0
5.833286820E-1,-2.280000150E-1,7.695000619E-2,9.810000420E0
5.858290690E-1,-2.329500169E-1,7.200000435E-2,9.834000587E0
5.883296050E-1,-2.160000056E-1,8.100000024E-2,9.838950157E0
5.908302160E-1,-1.990500093E-1,5.700000376E-2,9.850950241E0
5.933306020E-1,-2.160000056E-1,6.705000252E-2,9.870000839E0
5.958311390E-1,-1.990500093E-1,4.800000042E-2,9.856050491E0
5.983317540E-1,-1.609500051E-1,4.095000029E-2,9.834000587E0
6.008321410E-1,-1.279500127E-1,1.695000008E-2,9.813000679E0
6.033326920E-1,-1.110000089E-1,1.200000010E-2,9.835950851E0
6.058333080E-1,-1.060500070E-1,-4.050000105E-3,9.847950935E0
6.083336940E-1,-9.405000508E-2,-3.495000303E-2,9.862950325E0
6.108342310E-1,-5.805000290E-2,-3.495000303E-2,9.882000923E0
6.133348460E-1,-4.095000029E-2,-4.200000316E-2,9.850950241E0
6.158352330E-1,-1.500000060E-2,-3.299999982E-2,9.841050148E0
6.183357690E-1,6.000000052E-3,-1.605000161E-2,9.826950073E0
6.208363850E-1,-7.950000465E-3,1.395000052E-2,9.838950157E0
6.233367710E-1,-1.005000062E-2,1.695000008E-2,9.862950325E0
6.258373180E-1,-1.005000062E-2,2.400000021E-2,9.871950150E0
6.283379330E-1,6.000000052E-3,5.295000225E-2,9.871950150E0
6.308382430E-1,-1.005000062E-2,8.595000207E-2,9.847950935E0
6.333388560E-1,-1.500000060E-2,8.595000207E-2,9.841050148E0
6.358392240E-1,-2.205000073E-2,7.200000435E-2,9.838950157E0
6.383397600E-1,-1.995000057E-2,6.705000252E-2,9.834000587E0
6.408403760E-1,-4.395000264E-2,7.200000435E-2,9.834000587E0
6.433407620E-1,-7.695000619E-2,6.900000572E-2,9.850950241E0
6.458412940E-1,-6.795000285E-2,4.800000042E-2,9.847950935E0
6.483419090E-1,-6.300000101E-2,4.800000042E-2,9.870000839E0
6.508422960E-1,-2.895000204E-2,3.105000220E-2,9.834000587E0
6.533428320E-1,-4.395000264E-2,1.395000052E-2,9.817050934E0
6.558434480E-1,-7.005000114E-2,-9.000000544E-3,9.829050064E0
6.583438390E-1,-7.995000482E-2,4.950000439E-3,9.834000587E0
6.608443760E-1,-8.700000495E-2,-4.050000105E-3,9.856050491E0
6.633449910E-1,-8.205000311E-2,-2.100000158E-2,9.868050575E0
6.658453780E-1,-5.595000088E-2,-2.295000106E-2,9.858000755E0
6.683459280E-1,-8.700000495E-2,-3.299999982E-2,9.834000587E0
6.708465440E-1,-9.900000691E-2,-2.295000106E-2,9.825000763E0
6.733469300E-1,-9.900000691E-2,-4.005000368E-2,9.856050491E0
6.758474670E-1,-1.060500070E-1,-4.005000368E-2,9.841050148E0
6.783480720E-1,-1.560000032E-1,-3.495000303E-2,9.844050407E0
6.808484590E-1,-1.710000038E-1,-4.500000179E-2,9.838950157E0
6.833489950E-1,-1.710000038E-1,-4.005000368E-2,9.846000671E0
6.858496110E-1,-1.900500059E-1,-3.299999982E-2,9.835950851E0
6.883499970E-1,-1.750500053E-1,-3.705000132E-2,9.829050064E0
6.908505390E-1,-1.849500090E-1,-4.500000179E-2,9.820050240E0
6.933511540E-1,-1.780500114E-1,-3.705000132E-2,9.838950157E0
6.958515410E-1,-2.070000172E-1,-2.805000171E-2,9.862950325E0
6.983520770E-1,-1.969500035E-1,-3.705000132E-2,9.870000839E0
7.008524690E-1,-1.800000072E-1,-2.295000106E-2,9.856050491E0
7.033530820E-1,-1.849500090E-1,-2.295000106E-2,9.846000671E0
7.058536230E-1,-1.830000132E-1,-1.605000161E-2,9.838950157E0
7.083540070E-1,-1.660500020E-1,0.000000000E0,9.817050934E0
7.108546160E-1,-1.680000126E-1,-1.050000079E-3,9.829050064E0
7.133551560E-1,-1.800000072E-1,1.200000010E-2,9.832050323E0
7.158555410E-1,-1.800000072E-1,4.095000029E-2,9.858000755E0
7.183560770E-1,-1.800000072E-1,6.195000187E-2,9.850950241E0
7.208566690E-1,-1.590000093E-1,6.705000252E-2,9.847950935E0
7.233570550E-1,-1.249500066E-1,4.305000231E-2,9.844050407E0
7.258575920E-1,-7.005000114E-2,6.900000572E-2,9.820050240E0
7.283582070E-1,-9.600000083E-2,5.700000376E-2,9.838950157E0
7.308585990E-1,-7.695000619E-2,5.295000225E-2,9.844050407E0
7.333591350E-1,-6.795000285E-2,6.195000187E-2,9.858000755E0
7.358597510E-1,-2.895000204E-2,5.295000225E-2,9.835950851E0
7.383601370E-1,1.800000109E-2,3.795000166E-2,9.846000671E0
7.408606740E-1,5.100000277E-2,4.500000179E-2,9.846000671E0
7.433612890E-1,7.005000114E-2,3.299999982E-2,9.870000839E0
7.458616760E-1,7.995000482E-2,2.895000204E-2,9.853050232E0
7.483622120E-1,7.304999977E-2,2.205000073E-2,9.865050316E0
7.508625990E-1,9.900000691E-2,7.050000131E-3,9.870000839E0
7.533632310E-1,9.900000691E-2,1.950000064E-3,9.853050232E0
7.558637720E-1,1.060500070E-1,-9.000000544E-3,9.856050491E0
7.583641560E-1,1.039500013E-1,-6.000000052E-3,9.841050148E0
7.608647700E-1,9.900000691E-2,-3.000000119E-2,9.847950935E0
7.633653100E-1,9.405000508E-2,-2.505000122E-2,9.844050407E0
7.658656850E-1,6.795000285E-2,-1.095000096E-2,9.856050491E0
7.683662980E-1,3.000000119E-2,-4.050000105E-3,9.856050491E0
7.708668390E-1,1.500000060E-2,0.000000000E0,9.847950935E0
7.733672230E-1,3.000000026E-3,-1.050000079E-3,9.850950241E0
7.758678220E-1,1.005000062E-2,4.950000439E-3,9.859950066E0
7.783683620E-1,-1.695000008E-2,0.000000000E0,9.826950073E0
7.808687470E-1,-3.195000067E-2,-6.000000052E-3,9.838950157E0
7.833693600E-1,-6.300000101E-2,-4.050000105E-3,9.834000587E0
7.858699010E-1,-9.900000691E-2,1.950000064E-3,9.847950935E0
7.883702850E-1,-9.900000691E-2,4.950000439E-3,9.865050316E0
7.908708990E-1,-1.230000034E-1,1.200000010E-2,9.856050491E0
7.933714390E-1,-1.489500105E-1,-1.095000096E-2,9.834000587E0
7.958718240E-1,-1.590000093E-1,-9.000000544E-3,9.850950241E0
7.983723360E-1,-1.849500090E-1,-1.095000096E-2,9.841050148E0
8.008727230E-1,-2.110500038E-1,2.595000155E-2,9.834000587E0
8.033733360E-1,-2.329500169E-1,1.395000052E-2,9.841050148E0
8.058738770E-1,-2.209500074E-1,2.895000204E-2,9.846000671E0
8.083742750E-1,-2.179500163E-1,1.395000052E-2,9.829050064E0
8.108748890E-1,-2.089500129E-1,1.395000052E-2,9.825000763E0
8.133754290E-1,-2.160000056E-1,3.600000218E-2,9.826950073E0
8.158758140E-1,-2.020500153E-1,5.295000225E-2,9.832050323E0
8.183764420E-1,-2.070000172E-1,3.105000220E-2,9.838950157E0
8.208769830E-1,-1.870500147E-1,4.500000179E-2,9.853050232E0
8.233773670E-1,-1.680000126E-1,7.050000131E-3,9.847950935E0
8.258779810E-1,-1.369500011E-1,-9.000000544E-3,9.847950935E0
8.283784820E-1,-9.405000508E-2,-6.000000052E-3,9.850950241E0
8.308788670E-1,-7.500000298E-2,-3.495000303E-2,9.835950851E0
8.333794800E-1,-7.500000298E-2,-4.005000368E-2,9.820050240E0
8.358800210E-1,-4.605000094E-2,-6.405000389E-2,9.859950066E0
8.383804050E-1,-1.995000057E-2,-5.400000140E-2,9.865050316E0
8.408810190E-1,-7.950000465E-3,-4.695000127E-2,9.858000755E0
8.433815590E-1,1.050000079E-3,-5.700000376E-2,9.858000755E0
8.458819440E-1,4.095000029E-2,-6.795000285E-2,9.858000755E0
8.483825570E-1,3.900000080E-2,-6.105000153E-2,9.847950935E0
8.508830970E-1,5.100000277E-2,-7.605000585E-2,9.847950935E0
8.533834820E-1,6.300000101E-2,-4.500000179E-2,9.853050232E0
8.558840950E-1,6.495000422E-2,-3.495000303E-2,9.856050491E0
8.583846360E-1,5.805000290E-2,-2.805000171E-2,9.865050316E0
8.608850260E-1,6.105000153E-2,-1.800000109E-2,9.870000839E0
8.633856390E-1,7.500000298E-2,-2.100000158E-2,9.847950935E0
8.658859490E-1,4.605000094E-2,0.000000000E0,9.846000671E0
8.683865620E-1,1.995000057E-2,2.205000073E-2,9.844050407E0
8.708871060E-1,-1.305000018E-2,5.505000427E-2,9.834000587E0
8.733877210E-1,-3.705000132E-2,3.105000220E-2,9.858000755E0
8.758881080E-1,-3.405000269E-2,4.305000231E-2,9.856050491E0
8.783886440E-1,-2.505000122E-2,4.800000042E-2,9.844050407E0
8.808890310E-1,-5.100000277E-2,6.195000187E-2,9.844050407E0
8.833896440E-1,-4.605000094E-2,7.395000011E-2,9.834000587E0
8.858901840E-1,-7.695000619E-2,9.300000221E-2,9.826950073E0
8.883905690E-1,-8.895000070E-2,7.200000435E-2,9.850950241E0
8.908912010E-1,-7.695000619E-2,8.595000207E-2,9.871950150E0
8.933917420E-1,-6.795000285E-2,8.100000024E-2,9.877050400E0
8.958921270E-1,-7.695000619E-2,6.000000238E-2,9.858000755E0
8.983927400E-1,-4.905000329E-2,6.495000422E-2,9.853050232E0
9.008932800E-1,-3.900000080E-2,1.395000052E-2,9.835950851E0
9.033936700E-1,-6.300000101E-2,1.395000052E-2,9.834000587E0
9.058942070E-1,-4.395000264E-2,2.205000073E-2,9.835950851E0
9.083948220E-1,-5.295000225E-2,-6.000000052E-3,9.865050316E0
9.108952090E-1,-6.000000238E-2,-2.295000106E-2,9.862950325E0
9.133957450E-1,-5.100000277E-2,-3.299999982E-2,9.850950241E0
9.158963600E-1,-3.705000132E-2,-2.805000171E-2,9.829050064E0
9.183967470E-1,-4.605000094E-2,-3.000000119E-2,9.832050323E0
9.208972830E-1,-7.200000435E-2,-3.000000119E-2,9.847950935E0
9.233979080E-1,-9.405000508E-2,-3.000000119E-2,9.844050407E0
9.258982940E-1,-8.400000632E-2,-4.005000368E-2,9.870000839E0
9.283988310E-1,-9.900000691E-2,-3.000000119E-2,9.874950409E0
9.308994460E-1,-6.795000285E-2,-4.005000368E-2,9.846000671E0
9.333998330E-1,-6.795000285E-2,-5.400000140E-2,9.853050232E0
9.359003740E-1,-4.605000094E-2,-4.005000368E-2,9.838950157E0
9.384009900E-1,-5.805000290E-2,-3.495000303E-2,9.838950157E0
9.409013760E-1,-4.395000264E-2,-3.299999982E-2,9.832050323E0
9.434019130E-1,-7.005000114E-2,-3.299999982E-2,9.858000755E0
9.459025580E-1,-6.495000422E-2,-4.200000316E-2,9.865050316E0
9.484028680E-1,-5.805000290E-2,-2.505000122E-2,9.853050232E0
9.509034810E-1,-6.300000101E-2,-1.605000161E-2,9.856050491E0
9.534038680E-1,-7.005000114E-2,1.905000024E-2,9.835950851E0
9.559044090E-1,-5.100000277E-2,2.400000021E-2,9.825000763E0
9.584050250E-1,-6.300000101E-2,2.895000204E-2,9.838950157E0
9.609054110E-1,-6.795000285E-2,4.305000231E-2,9.871950150E0
9.634059480E-1,-5.595000088E-2,3.795000166E-2,9.853050232E0
9.659065630E-1,-4.605000094E-2,4.800000042E-2,9.862950325E0
9.684069740E-1,-2.700000070E-2,5.505000427E-2,9.850950241E0
9.709075100E-1,-1.695000008E-2,4.995000362E-2,9.834000587E0
9.734081260E-1,-3.195000067E-2,4.500000179E-2,9.826950073E0
9.759085120E-1,-1.305000018E-2,2.400000021E-2,9.844050407E0
9.784090340E-1,-3.000000026E-3,2.895000204E-2,9.850950241E0
9.809096490E-1,-1.695000008E-2,2.205000073E-2,9.847950935E0
9.834100360E-1,-7.950000465E-3,2.400000021E-2,9.862950325E0
9.859105720E-1,-3.000000026E-3,1.905000024E-2,9.850950241E0
9.884111790E-1,-1.005000062E-2,1.395000052E-2,9.858000755E0
9.909115650E-1,-1.050000079E-3,-9.000000544E-3,9.850950241E0
9.934121020E-1,-7.950000465E-3,-2.505000122E-2,9.858000755E0
9.959127170E-1,-2.895000204E-2,-1.800000109E-2,9.870000839E0
9.984131180E-1,-6.300000101E-2,-9.000000544E-3,9.871950150E0
1.000913654E0,-5.100000277E-2,-2.295000106E-2,9.856050491E0
1.003414270E0,-4.395000264E-2,-2.505000122E-2,9.841050148E0
1.005914656E0,-5.595000088E-2,-2.100000158E-2,9.814950943E0
1.008415207E0,-5.805000290E-2,-2.295000106E-2,9.826950073E0
1.010915822E0,-6.000000238E-2,-3.299999982E-2,9.844050407E0
1.013416209E0,-7.695000619E-2,-3.000000119E-2,9.850950241E0
1.015916745E0,-8.400000632E-2,-4.005000368E-2,9.859950066E0
1.018417361E0,-8.895000070E-2,-1.800000109E-2,9.880050659E0
1.020917747E0,-7.695000619E-2,-1.800000109E-2,9.844050407E0
1.023418284E0,-9.900000691E-2,-2.100000158E-2,9.850950241E0
1.025918899E0,-9.900000691E-2,-6.000000052E-3,9.841050148E0
1.028419286E0,-9.405000508E-2,1.950000064E-3,9.838950157E0
1.030919827E0,-1.110000089E-1,2.205000073E-2,9.858000755E0
1.033420214E0,-1.129500046E-1,1.395000052E-2,9.862950325E0
1.035920750E0,-1.440000087E-1,4.800000042E-2,9.844050407E0
1.038421366E0,-1.469999999E-1,5.505000427E-2,9.838950157E0
1.040921752E0,-1.560000032E-1,6.195000187E-2,9.844050407E0
1.043422275E0,-1.489500105E-1,4.995000362E-2,9.826950073E0
1.045922890E0,-1.729500145E-1,6.900000572E-2,9.829050064E0
1.048423277E0,-1.800000072E-1,6.195000187E-2,9.847950935E0
1.050923813E0,-1.830000132E-1,6.705000252E-2,9.835950851E0
1.053424443E0,-1.630500108E-1,4.500000179E-2,9.850950241E0
1.055924829E0,-1.609500051E-1,3.600000218E-2,9.844050407E0
1.058425366E0,-1.469999999E-1,1.005000062E-2,9.835950851E0
1.060925981E0,-1.420500129E-1,-9.000000544E-3,9.844050407E0
1.063426363E0,-1.279500127E-1,-1.800000109E-2,9.838950157E0
1.065926899E0,-1.249500066E-1,-1.800000109E-2,9.850950241E0
1.068427286E0,-1.319999993E-1,-1.800000109E-2,9.844050407E0
1.070927899E0,-1.319999993E-1,-1.605000161E-2,9.850950241E0
1.073428416E0,-1.319999993E-1,-2.505000122E-2,9.856050491E0
1.075928800E0,-1.039500013E-1,-2.505000122E-2,9.834000587E0
1.078429414E0,-7.695000619E-2,-2.100000158E-2,9.862950325E0
1.080929954E0,-9.195000678E-2,-6.000000052E-3,9.826950073E0
1.083430339E0,-1.080000028E-1,0.000000000E0,9.856050491E0
1.085930952E0,-1.180500090E-1,-1.050000079E-3,9.856050491E0
1.088431493E0,-1.319999993E-1,0.000000000E0,9.858000755E0
1.090931877E0,-1.200000048E-1,1.950000064E-3,9.853050232E0
1.093432491E0,-1.060500070E-1,0.000000000E0,9.834000587E0
1.095933017E0,-1.159500033E-1,-1.050000079E-3,9.822000504E0
1.098433402E0,-1.300500035E-1,-6.000000052E-3,9.853050232E0
1.100934015E0,-1.080000028E-1,0.000000000E0,9.850950241E0
1.103434556E0,-1.300500035E-1,-6.000000052E-3,9.850950241E0
1.105934964E0,-1.129500046E-1,1.005000062E-2,9.841050148E0
1.108435578E0,-1.510500014E-1,1.005000062E-2,9.853050232E0
1.110936118E0,-9.900000691E-2,1.695000008E-2,9.846000671E0
1.113436503E0,-9.900000691E-2,-1.095000096E-2,9.844050407E0
1.115937014E0,-9.900000691E-2,4.950000439E-3,9.846000671E0
1.118437630E0,-9.405000508E-2,1.695000008E-2,9.838950157E0
1.120938016E0,-6.300000101E-2,-2.805000171E-2,9.846000671E0
1.123438553E0,-8.700000495E-2,-9.000000544E-3,9.862950325E0
1.125938920E0,-6.495000422E-2,3.105000220E-2,9.870000839E0
1.128439534E0,-5.100000277E-2,4.950000439E-3,9.844050407E0
1.130940074E0,-2.700000070E-2,1.200000010E-2,9.856050491E0
1.133440459E0,-3.405000269E-2,6.000000238E-2,9.834000587E0
1.135941072E0,-5.100000277E-2,6.495000422E-2,9.847950935E0
1.138441599E0,-3.705000132E-2,6.900000572E-2,9.858000755E0
1.140941983E0,-2.505000122E-2,6.705000252E-2,9.874950409E0
1.143442597E0,-1.695000008E-2,5.505000427E-2,9.841050148E0
1.145943137E0,3.000000026E-3,3.299999982E-2,9.850950241E0
1.148443522E0,-7.950000465E-3,2.895000204E-2,9.850950241E0
1.150944154E0,-1.050000079E-3,-1.050000079E-3,9.841050148E0
1.153444695E0,3.000000026E-3,-1.095000096E-2,9.868050575E0
1.155945079E0,1.800000109E-2,-1.305000018E-2,9.858000755E0
1.158445693E0,3.000000026E-3,-4.005000368E-2,9.850950241E0
1.160946233E0,-7.950000465E-3,-2.295000106E-2,9.853050232E0
1.163446618E0,-1.995000057E-2,-5.205000192E-2,9.841050148E0
1.165947231E0,7.950000465E-3,-4.500000179E-2,9.858000755E0
1.168447772E0,-2.700000070E-2,-4.005000368E-2,9.853050232E0
1.170948174E0,-4.905000329E-2,-4.500000179E-2,9.847950935E0
1.173448788E0,-8.400000632E-2,-3.495000303E-2,9.862950325E0
1.175949328E0,-7.500000298E-2,-3.705000132E-2,9.858000755E0
1.178449713E0,-9.405000508E-2,-3.495000303E-2,9.856050491E0
1.180950312E0,-8.700000495E-2,-1.605000161E-2,9.834000587E0
1.183450853E0,-1.060500070E-1,-4.050000105E-3,9.825000763E0
1.185951237E0,-1.200000048E-1,1.695000008E-2,9.841050148E0
1.188451774E0,-1.249500066E-1,2.595000155E-2,9.856050491E0
1.190952160E0,-1.249500066E-1,1.005000062E-2,9.856050491E0
1.193452774E0,-1.440000087E-1,1.905000024E-2,9.858000755E0
1.195953314E0,-1.230000034E-1,4.950000439E-3,9.858000755E0
1.198453699E0,-1.249500066E-1,7.050000131E-3,9.838950157E0
1.200954303E0,-9.405000508E-2,-1.605000161E-2,9.844050407E0
1.203454844E0,-8.400000632E-2,-2.805000171E-2,9.838950157E0
1.205955228E0,-8.205000311E-2,-1.305000018E-2,9.853050232E0
1.208455842E0,-9.405000508E-2,0.000000000E0,9.865050316E0
1.210956382E0,-7.200000435E-2,1.695000008E-2,9.865050316E0
1.213456763E0,-6.000000238E-2,0.000000000E0,9.870000839E0
1.215957376E0,-3.405000269E-2,4.950000439E-3,9.856050491E0
1.218457917E0,-1.695000008E-2,-6.000000052E-3,9.844050407E0
1.220958301E0,-3.900000080E-2,1.695000008E-2,9.825000763E0
1.223458919E0,-4.605000094E-2,-1.050000079E-3,9.850950241E0
1.225959459E0,-6.300000101E-2,-6.000000052E-3,9.856050491E0
1.228459844E0,-1.005000062E-2,-3.299999982E-2,9.870000839E0
1.230960457E0,-1.695000008E-2,-1.800000109E-2,9.865050316E0
1.233460998E0,-4.395000264E-2,-9.000000544E-3,9.846000671E0
1.235961382E0,-1.995000057E-2,-1.800000109E-2,9.853050232E0
1.238461996E0,-1.995000057E-2,-1.305000018E-2,9.841050148E0
1.240962536E0,-5.595000088E-2,-2.505000122E-2,9.858000755E0
1.243462921E0,-6.000000238E-2,1.695000008E-2,9.880050659E0
1.245963548E0,-5.805000290E-2,0.000000000E0,9.856050491E0
1.248464088E0,-6.000000238E-2,0.000000000E0,9.858000755E0
1.250964473E0,-4.905000329E-2,2.595000155E-2,9.847950935E0
1.253465010E0,-4.395000264E-2,2.205000073E-2,9.838950157E0
1.255965634E0,-6.495000422E-2,3.600000218E-2,9.834000587E0
1.258466021E0,-9.600000083E-2,4.305000231E-2,9.847950935E0
1.260966557E0,-1.060500070E-1,6.000000238E-2,9.858000755E0
1.263467172E0,-9.405000508E-2,9.105000645E-2,9.858000755E0
1.265967559E0,-9.600000083E-2,7.905000448E-2,9.853050232E0
1.268468096E0,-9.195000678E-2,9.105000645E-2,9.853050232E0
1.270968482E0,-8.895000070E-2,9.300000221E-2,9.832050323E0
1.273469096E0,-1.060500070E-1,9.300000221E-2,9.825000763E0
1.275969608E0,-7.695000619E-2,6.495000422E-2,9.841050148E0
1.278469993E0,-9.195000678E-2,6.705000252E-2,9.856050491E0
1.280970529E0,-8.400000632E-2,5.295000225E-2,9.858000755E0
1.283471144E0,-7.695000619E-2,3.795000166E-2,9.856050491E0
1.285971521E0,-4.605000094E-2,1.395000052E-2,9.853050232E0
1.288472058E0,-3.195000067E-2,-1.050000079E-3,9.825000763E0
1.290972673E0,-3.000000026E-3,1.905000024E-2,9.835950851E0
1.293473060E0,-2.700000070E-2,1.950000064E-3,9.844050407E0
1.295973605E0,-4.605000094E-2,-9.000000544E-3,9.868050575E0
1.298474220E0,-2.700000070E-2,-9.000000544E-3,9.859950066E0
1.300974607E0,-2.505000122E-2,-3.000000119E-2,9.856050491E0
1.303475144E0,-1.500000060E-2,-1.800000109E-2,9.846000671E0
1.305975759E0,-1.305000018E-2,-3.000000119E-2,9.835950851E0
1.308476146E0,-2.505000122E-2,-3.705000132E-2,9.832050323E0
1.310976682E0,-2.700000070E-2,-2.295000106E-2,9.832050323E0
1.313477297E0,-3.705000132E-2,-5.205000192E-2,9.858000755E0
1.315977684E0,-5.100000277E-2,-4.005000368E-2,9.886950493E0
1.318478197E0,-7.995000482E-2,-1.305000018E-2,9.858000755E0
1.320978812E0,-9.195000678E-2,-1.800000109E-2,9.850950241E0
1.323479199E0,-7.200000435E-2,-1.605000161E-2,9.841050148E0
1.325979735E0,-7.500000298E-2,-1.800000109E-2,9.832050323E0
1.328480350E0,-1.009500027E-1,0.000000000E0,9.826950073E0
1.330980733E0,-1.060500070E-1,-6.000000052E-3,9.850950241E0
1.333481269E0,-1.180500090E-1,1.005000062E-2,9.874950409E0
1.335981885E0,-1.080000028E-1,-4.050000105E-3,9.868050575E0
1.338482271E0,-8.700000495E-2,1.200000010E-2,9.856050491E0
1.340982774E0,-7.500000298E-2,4.950000439E-3,9.826950073E0
1.343483389E0,-8.700000495E-2,1.395000052E-2,9.829050064E0
1.345983776E0,-9.600000083E-2,4.500000179E-2,9.826950073E0
1.348484312E0,-1.080000028E-1,2.595000155E-2,9.853050232E0
1.350984933E0,-1.060500070E-1,2.400000021E-2,9.870000839E0
1.353485243E0,-1.279500127E-1,4.500000179E-2,9.850950241E0
1.355985856E0,-1.279500127E-1,2.895000204E-2,9.847950935E0
1.358486243E0,-1.230000034E-1,3.105000220E-2,9.825000763E0
1.360986778E0,-1.350000054E-1,3.105000220E-2,9.813000679E0
1.363487393E0,-1.129500046E-1,4.095000029E-2,9.826950073E0
1.365987780E0,-1.180500090E-1,1.695000008E-2,9.853050232E0
1.368488316E0,-1.469999999E-1,-6.000000052E-3,9.859950066E0
1.370988942E0,-1.489500105E-1,4.950000439E-3,9.865050316E0
1.373489328E0,-1.369500011E-1,4.950000439E-3,9.841050148E0
1.375989865E0,-1.180500090E-1,-1.095000096E-2,9.838950157E0
1.378490480E0,-1.009500027E-1,-6.000000052E-3,9.829050064E0
1.380990886E0,-9.900000691E-2,-1.305000018E-2,9.822000504E0
1.383491422E0,-1.159500033E-1,-2.505000122E-2,9.834000587E0
1.385992038E0,-9.600000083E-2,-1.305000018E-2,9.865050316E0
1.388492424E0,-7.500000298E-2,-2.805000171E-2,9.874950409E0
1.390992942E0,-6.795000285E-2,-1.800000109E-2,9.838950157E0
1.393493557E0,-6.495000422E-2,1.695000008E-2,9.844050407E0
1.395993944E0,-4.095000029E-2,1.950000064E-3,9.838950157E0
1.398494480E0,-1.005000062E-2,1.695000008E-2,9.825000763E0
1.400995106E0,-2.895000204E-2,1.005000062E-2,9.862950325E0
1.403495492E0,-3.195000067E-2,1.005000062E-2,9.877050400E0
1.405996029E0,-5.595000088E-2,3.795000166E-2,9.874950409E0
1.408496644E0,-6.000000238E-2,4.305000231E-2,9.858000755E0
1.410997031E0,-4.605000094E-2,4.095000029E-2,9.844050407E0
1.413497581E0,-2.700000070E-2,4.800000042E-2,9.835950851E0
1.415997968E0,-2.700000070E-2,6.195000187E-2,9.825000763E0
1.418498581E0,-3.900000080E-2,4.095000029E-2,9.853050232E0
1.420999122E0,-6.000000238E-2,6.195000187E-2,9.862950325E0
1.423499496E0,-4.095000029E-2,4.995000362E-2,9.862950325E0
1.426000110E0,-3.195000067E-2,4.500000179E-2,9.865050316E0
1.428500650E0,-2.700000070E-2,4.305000231E-2,9.858000755E0
1.431001035E0,-3.000000026E-3,4.995000362E-2,9.822000504E0
1.433501581E0,-7.950000465E-3,2.400000021E-2,9.838950157E0
1.436002197E0,-3.000000026E-3,4.500000179E-2,9.835950851E0
1.438502583E0,1.050000079E-3,3.299999982E-2,9.870000839E0
1.441003120E0,-1.005000062E-2,2.895000204E-2,9.880050659E0
1.443503735E0,-1.695000008E-2,3.105000220E-2,9.871950150E0
1.446004122E0,-2.895000204E-2,1.200000010E-2,9.838950157E0
1.448504658E0,-1.050000079E-3,1.695000008E-2,9.841050148E0
1.451005274E0,-2.205000073E-2,-6.000000052E-3,9.832050323E0
1.453505660E0,-4.905000329E-2,-6.000000052E-3,9.825000763E0
1.456006197E0,-7.995000482E-2,1.950000064E-3,9.859950066E0
1.458506583E0,-1.080000028E-1,-9.000000544E-3,9.858000755E0
1.461007197E0,-8.400000632E-2,-1.605000161E-2,9.868050575E0
1.463507742E0,-9.600000083E-2,-1.305000018E-2,9.850950241E0
1.466008127E0,-1.159500033E-1,-3.000000119E-2,9.853050232E0
1.468508740E0,-1.039500013E-1,-2.100000158E-2,9.820050240E0
1.471009281E0,-1.159500033E-1,-1.800000109E-2,9.838950157E0
1.473509665E0,-1.420500129E-1,-2.100000158E-2,9.835950851E0
1.476010293E0,-1.489500105E-1,-2.295000106E-2,9.850950241E0
1.478510833E0,-1.300500035E-1,-2.805000171E-2,9.856050491E0
1.481011218E0,-1.390500069E-1,-3.299999982E-2,9.841050148E0
1.483511831E0,-1.230000034E-1,-9.000000544E-3,9.844050407E0
1.486012387E0,-1.279500127E-1,-1.800000109E-2,9.829050064E0
1.488512771E0,-1.159500033E-1,-6.000000052E-3,9.847950935E0
1.491013385E0,-1.510500014E-1,-1.050000079E-3,9.856050491E0
1.493513925E0,-1.420500129E-1,1.695000008E-2,9.877050400E0
1.496014310E0,-1.469999999E-1,1.200000010E-2,9.847950935E0
1.498514951E0,-1.440000087E-1,2.895000204E-2,9.859950066E0
1.501015492E0,-1.230000034E-1,2.595000155E-2,9.847950935E0
1.503515876E0,-1.230000034E-1,-2.505000122E-2,9.841050148E0
1.506016490E0,-8.895000070E-2,-3.495000303E-2,9.834000587E0
1.508517035E0,-9.600000083E-2,-5.400000140E-2,9.846000671E0
1.511017420E0,-5.295000225E-2,-7.605000585E-2,9.858000755E0
1.513517956E0,-2.505000122E-2,-8.805000782E-2,9.858000755E0
1.516018343E0,-4.950000439E-3,-7.995000482E-2,9.862950325E0
1.518518947E0,3.000000026E-3,-5.400000140E-2,9.868050575E0
1.521019488E0,4.395000264E-2,-5.400000140E-2,9.838950157E0
1.523519872E0,5.295000225E-2,-6.405000389E-2,9.835950851E0
1.526020486E0,6.300000101E-2,-4.905000329E-2,9.838950157E0
1.528521026E0,4.605000094E-2,-1.305000018E-2,9.871950150E0
1.531021411E0,6.105000153E-2,-1.305000018E-2,9.865050316E0
1.533522024E0,7.304999977E-2,1.005000062E-2,9.870000839E0
1.536022565E0,6.300000101E-2,4.950000439E-3,9.862950325E0
1.538522939E0,7.005000114E-2,-1.050000079E-3,9.822000504E0
1.541023553E0,5.805000290E-2,-1.095000096E-2,9.844050407E0
1.543524093E0,4.905000329E-2,1.395000052E-2,9.859950066E0
1.546024478E0,3.000000119E-2,1.005000062E-2,9.865050316E0
1.548525072E0,6.300000101E-2,-1.095000096E-2,9.865050316E0
1.551025613E0,5.100000277E-2,1.395000052E-2,9.856050491E0
1.553525997E0,4.605000094E-2,1.695000008E-2,9.853050232E0
1.556026611E0,3.405000269E-2,1.905000024E-2,9.841050148E0
1.558527151E0,2.700000070E-2,2.205000073E-2,9.847950935E0
1.561027550E0,1.800000109E-2,2.400000021E-2,9.856050491E0
1.563528086E0,-1.695000008E-2,1.905000024E-2,9.850950241E0
1.566028702E0,-4.905000329E-2,2.895000204E-2,9.859950066E0
1.568529088E0,-6.000000238E-2,2.400000021E-2,9.859950066E0
1.571029702E0,-8.205000311E-2,3.600000218E-2,9.844050407E0
1.573530242E0,-9.600000083E-2,2.400000021E-2,9.832050323E0
1.576030627E0,-1.180500090E-1,3.600000218E-2,9.841050148E0
1.578531163E0,-1.420500129E-1,2.400000021E-2,9.844050407E0
1.581031760E0,-1.900500059E-1,1.905000024E-2,9.850950241E0
1.583532146E0,-1.900500059E-1,2.400000021E-2,9.844050407E0
1.586032683E0,-1.800000072E-1,1.950000064E-3,9.850950241E0
1.588533069E0,-1.990500093E-1,0.000000000E0,9.844050407E0
1.591033683E0,-1.849500090E-1,1.950000064E-3,9.832050323E0
1.593534223E0,-1.800000072E-1,-1.050000079E-3,9.847950935E0
1.596034837E0,-1.560000032E-1,-6.000000052E-3,9.838950157E0
1.598535223E0,-1.660500020E-1,-1.800000109E-2,9.859950066E0
1.601035760E0,-1.800000072E-1,-1.605000161E-2,9.846000671E0
1.603536126E0,-1.440000087E-1,-1.095000096E-2,9.858000755E0
1.606036740E0,-1.279500127E-1,-2.505000122E-2,9.856050491E0
1.608537280E0,-1.249500066E-1,-3.495000303E-2,9.844050407E0
1.611037665E0,-1.200000048E-1,-2.100000158E-2,9.838950157E0
1.613538288E0,-1.009500027E-1,-4.050000105E-3,9.838950157E0
1.616038829E0,-1.249500066E-1,-9.000000544E-3,9.858000755E0
1.618539213E0,-1.230000034E-1,1.950000064E-3,9.862950325E0
1.621039827E0,-1.110000089E-1,1.005000062E-2,9.868050575E0
1.623540367E0,-9.195000678E-2,0.000000000E0,9.856050491E0
1.626040767E0,-5.595000088E-2,7.050000131E-3,9.832050323E0
1.628541303E0,-4.905000329E-2,2.205000073E-2,9.838950157E0
1.631041919E0,-3.195000067E-2,2.205000073E-2,9.847950935E0
1.633542305E0,-4.095000029E-2,1.905000024E-2,9.850950241E0
1.636042857E0,-2.700000070E-2,1.905000024E-2,9.862950325E0
1.638543472E0,-2.895000204E-2,3.299999982E-2,9.850950241E0
1.641043859E0,-2.205000073E-2,4.305000231E-2,9.847950935E0
1.643544395E0,-2.205000073E-2,4.305000231E-2,9.858000755E0
1.646045006E0,-3.000000026E-3,4.800000042E-2,9.856050491E0
1.648545392E0,-1.695000008E-2,7.200000435E-2,9.844050407E0
1.651045929E0,-3.195000067E-2,6.705000252E-2,9.874950409E0
1.653546544E0,-3.705000132E-2,7.395000011E-2,9.856050491E0
1.656046931E0,-2.700000070E-2,8.400000632E-2,9.847950935E0
1.658547467E0,-3.900000080E-2,8.595000207E-2,9.838950157E0
1.661048082E0,-5.295000225E-2,6.705000252E-2,9.834000587E0
1.663548392E0,-6.300000101E-2,7.395000011E-2,9.835950851E0
1.666049006E0,-9.900000691E-2,6.495000422E-2,9.850950241E0
1.668549353E0,-1.110000089E-1,4.500000179E-2,9.862950325E0
1.671049890E0,-1.489500105E-1,4.800000042E-2,9.874950409E0
1.673550505E0,-1.510500014E-1,5.505000427E-2,9.859950066E0
1.676050892E0,-1.609500051E-1,2.205000073E-2,9.850950241E0
1.678551428E0,-1.590000093E-1,2.595000155E-2,9.838950157E0
1.681052049E0,-1.510500014E-1,1.200000010E-2,9.846000671E0
1.683552435E0,-1.609500051E-1,1.005000062E-2,9.835950851E0
1.686052972E0,-1.560000032E-1,4.950000439E-3,9.847950935E0
1.688553587E0,-1.489500105E-1,1.005000062E-2,9.844050407E0
1.691053989E0,-1.469999999E-1,2.205000073E-2,9.844050407E0
1.693554525E0,-1.420500129E-1,0.000000000E0,9.846000671E0
1.696055140E0,-1.249500066E-1,7.050000131E-3,9.826950073E0
1.698555527E0,-1.230000034E-1,0.000000000E0,9.834000587E0
1.701056064E0,-1.350000054E-1,4.950000439E-3,9.834000587E0
1.703556679E0,-1.180500090E-1,-1.095000096E-2,9.846000671E0
1.706057066E0,-9.900000691E-2,-1.305000018E-2,9.853050232E0
1.708557602E0,-1.200000048E-1,-4.005000368E-2,9.856050491E0
1.711058217E0,-1.009500027E-1,-2.295000106E-2,9.850950241E0
1.713558604E0,-1.009500027E-1,-3.495000303E-2,9.846000671E0
1.716059150E0,-1.060500070E-1,-4.200000316E-2,9.841050148E0
1.718559765E0,-8.205000311E-2,-4.005000368E-2,9.834000587E0
1.721060152E0,-9.405000508E-2,-5.700000376E-2,9.844050407E0
1.723560688E0,-1.009500027E-1,-3.705000132E-2,9.850950241E0
1.726061318E0,-8.205000311E-2,-2.505000122E-2,9.870000839E0
1.728561705E0,-7.500000298E-2,-1.800000109E-2,9.859950066E0
1.731062241E0,-5.295000225E-2,-4.005000368E-2,9.856050491E0
1.733562628E0,-4.605000094E-2,-3.495000303E-2,9.853050232E0
1.736063241E0,-3.705000132E-2,-5.895000324E-2,9.858000755E0
1.738563782E0,-2.895000204E-2,-4.905000329E-2,9.847950935E0
1.741064167E0,-1.500000060E-2,-8.505000174E-2,9.870000839E0
1.743564780E0,3.000000026E-3,-9.195000678E-2,9.870000839E0
1.746065320E0,1.005000062E-2,-7.800000161E-2,9.862950325E0
1.748565705E0,1.500000060E-2,-7.304999977E-2,9.850950241E0
1.751066242E0,1.995000057E-2,-7.095000148E-2,9.853050232E0
1.753566857E0,3.405000269E-2,-7.800000161E-2,9.844050407E0
1.756067244E0,1.995000057E-2,-8.505000174E-2,9.859950066E0
1.758567780E0,1.500000060E-2,-5.400000140E-2,9.859950066E0
1.761068414E0,7.950000465E-3,-1.605000161E-2,9.858000755E0
1.763568801E0,1.500000060E-2,1.695000008E-2,9.847950935E0
1.766069337E0,3.900000080E-2,4.800000042E-2,9.846000671E0
1.768569724E0,5.100000277E-2,8.895000070E-2,9.862950325E0
1.771070333E0,4.395000264E-2,7.905000448E-2,9.862950325E0
1.773570873E0,4.905000329E-2,1.150500029E-1,9.850950241E0
1.776071258E0,5.100000277E-2,1.150500029E-1,9.865050316E0
1.778571871E0,4.605000094E-2,1.170000061E-1,9.880050659E0
1.781072430E0,4.095000029E-2,9.795000404E-2,9.858000755E0
1.783572815E0,1.995000057E-2,1.030500084E-1,9.856050491E0
1.786073428E0,1.005000062E-2,1.009500027E-1,9.829050064E0
1.788573969E0,2.700000070E-2,6.900000572E-2,9.853050232E0
1.791074330E0,-4.950000439E-3,5.700000376E-2,9.846000671E0
1.793574943E0,-3.195000067E-2,2.595000155E-2,9.847950935E0
1.796075483E0,-5.595000088E-2,2.400000021E-2,9.865050316E0
1.798575868E0,-8.205000311E-2,-4.050000105E-3,9.862950325E0
1.801076481E0,-6.495000422E-2,-3.705000132E-2,9.841050148E0
1.803577012E0,-6.000000238E-2,-2.100000158E-2,9.835950851E0
1.806077397E0,-1.009500027E-1,-5.700000376E-2,9.829050064E0
1.808578010E0,-1.200000048E-1,-4.905000329E-2,9.838950157E0
1.811078550E0,-1.560000032E-1,-3.495000303E-2,9.858000755E0
1.813578915E0,-1.830000132E-1,-5.400000140E-2,9.858000755E0
1.816079528E0,-1.780500114E-1,-4.695000127E-2,9.847950935E0
1.818580069E0,-1.510500014E-1,-6.795000285E-2,9.844050407E0
1.821080453E0,-1.800000072E-1,-6.405000389E-2,9.838950157E0
1.823580985E0,-1.800000072E-1,-7.095000148E-2,9.832050323E0
1.826081600E0,-2.070000172E-1,-5.895000324E-2,9.832050323E0
1.828581987E0,-2.070000172E-1,-3.000000119E-2,9.853050232E0
1.831082600E0,-2.020500153E-1,-1.605000161E-2,9.841050148E0
1.833582910E0,-2.020500153E-1,-9.000000544E-3,9.829050064E0
1.836083509E0,-1.990500093E-1,-4.050000105E-3,9.844050407E0
1.838584048E0,-1.780500114E-1,2.205000073E-2,9.838950157E0
1.841084435E0,-1.729500145E-1,2.595000155E-2,9.838950157E0
1.843585048E0,-1.750500053E-1,4.800000042E-2,9.850950241E0
1.846085617E0,-1.660500020E-1,4.500000179E-2,9.841050148E0
1.848586002E0,-1.420500129E-1,4.500000179E-2,9.856050491E0
1.851086615E0,-1.080000028E-1,3.795000166E-2,9.841050148E0
1.853587156E0,-8.895000070E-2,1.395000052E-2,9.859950066E0
1.856087544E0,-6.495000422E-2,3.600000218E-2,9.858000755E0
1.858588158E0,-5.295000225E-2,3.600000218E-2,9.832050323E0
1.861088698E0,-4.605000094E-2,2.895000204E-2,9.859950066E0
1.863589083E0,-1.500000060E-2,2.400000021E-2,9.858000755E0
1.866089696E0,-1.500000060E-2,-1.095000096E-2,9.862950325E0
1.868590237E0,-3.000000026E-3,-1.605000161E-2,9.877050400E0
1.871090621E0,1.305000018E-2,-3.705000132E-2,9.868050575E0
1.873591235E0,3.195000067E-2,-7.800000161E-2,9.865050316E0
1.876091771E0,4.395000264E-2,-6.105000153E-2,9.858000755E0
1.878592156E0,7.304999977E-2,-9.000000358E-2,9.850950241E0
1.881092769E0,6.300000101E-2,-9.495000541E-2,9.865050316E0
1.883593310E0,6.795000285E-2,-1.120500043E-1,9.862950325E0
1.886093694E0,7.005000114E-2,-1.309500039E-1,9.874950409E0
1.888594231E0,8.505000174E-2,-1.500000060E-1,9.856050491E0
1.891094846E0,1.039500013E-1,-1.429500133E-1,9.850950241E0
1.893595233E0,7.695000619E-2,-8.805000782E-2,9.850950241E0
1.896095773E0,4.095000029E-2,-6.405000389E-2,9.856050491E0
1.898596389E0,2.205000073E-2,-2.505000122E-2,9.850950241E0
1.901096775E0,1.500000060E-2,4.500000179E-2,9.853050232E0
1.903597312E0,-3.000000026E-3,6.705000252E-2,9.859950066E0
1.906097679E0,-4.605000094E-2,7.695000619E-2,9.841050148E0
1.908598293E0,-5.295000225E-2,1.030500084E-1,9.829050064E0
1.911098833E0,-1.060500070E-1,1.410000026E-1,9.832050323E0
1.913599218E0,-1.300500035E-1,1.390500069E-1,9.834000587E0
1.916099831E0,-1.609500051E-1,1.410000026E-1,9.835950851E0
1.918600348E0,-1.710000038E-1,1.200000048E-1,9.846000671E0
1.921100732E0,-2.070000172E-1,1.360500008E-1,9.846000671E0
1.923601269E0,-2.299500108E-1,1.120500043E-1,9.846000671E0
1.926101884E0,-2.419500053E-1,1.099500060E-1,9.832050323E0
1.928602256E0,-2.500500083E-1,1.009500027E-1,9.826950073E0
1.931102792E0,-2.639999986E-1,1.120500043E-1,9.838950157E0
1.933603408E0,-2.950500250E-1,8.895000070E-2,9.838950157E0
1.936103794E0,-2.809500098E-1,7.695000619E-2,9.829050064E0
1.938604331E0,-2.760000229E-1,6.495000422E-2,9.847950935E0
1.941104951E0,-2.689500153E-1,4.095000029E-2,9.835950851E0
1.943605338E0,-2.620500028E-1,3.600000218E-2,9.822000504E0
1.946105874E0,-2.590500116E-1,1.695000008E-2,9.825000763E0
1.948606490E0,-2.299500108E-1,1.005000062E-2,9.838950157E0
1.951106876E0,-2.260500044E-1,2.400000021E-2,9.865050316E0
1.953607413E0,-1.800000072E-1,1.950000064E-3,9.856050491E0
1.956108028E0,-1.660500020E-1,-1.095000096E-2,9.846000671E0
1.958608415E0,-1.540500075E-1,-4.200000316E-2,9.850950241E0
1.961108975E0,-1.080000028E-1,-4.695000127E-2,9.838950157E0
1.963609591E0,-7.995000482E-2,-4.005000368E-2,9.838950157E0
1.966109977E0,-5.805000290E-2,-2.295000106E-2,9.856050491E0
1.968610514E0,-4.095000029E-2,-1.605000161E-2,9.871950150E0
1.971111124E0,-4.395000264E-2,-3.000000119E-2,9.868050575E0
1.973611511E0,-2.205000073E-2,-4.905000329E-2,9.868050575E0
1.976112047E0,-4.950000439E-3,-4.005000368E-2,9.853050232E0
1.978612663E0,7.950000465E-3,-5.205000192E-2,9.850950241E0
1.981112982E0,-1.500000060E-2,-3.299999982E-2,9.850950241E0
1.983613596E0,-2.505000122E-2,-2.100000158E-2,9.856050491E0
1.986113982E0,-1.500000060E-2,-6.000000052E-3,9.844050407E0
1.988614596E0,-7.950000465E-3,0.000000000E0,9.856050491E0
1.991115136E0,-1.005000062E-2,1.395000052E-2,9.859950066E0
1.993615507E0,-1.995000057E-2,3.299999982E-2,9.847950935E0
1.996116043E0,-2.505000122E-2,3.105000220E-2,9.856050491E0
1.998616659E0,-2.205000073E-2,2.595000155E-2,9.838950157E0
2.001117045E0,-4.605000094E-2,1.200000010E-2,9.846000671E0
2.003617582E0,-4.905000329E-2,7.050000131E-3,9.853050232E0
2.006118197E0,-7.695000619E-2,1.950000064E-3,9.862950325E0
2.008618584E0,-8.400000632E-2,0.000000000E0,9.865050316E0
2.011119120E0,-5.100000277E-2,1.695000008E-2,9.847950935E0
2.013619750E0,-6.300000101E-2,-9.000000544E-3,9.856050491E0
2.016120136E0,-6.795000285E-2,-2.505000122E-2,9.832050323E0
2.018620673E0,-9.195000678E-2,-3.495000303E-2,9.853050232E0
2.021121288E0,-9.195000678E-2,-3.495000303E-2,9.858000755E0
2.023621675E0,-1.159500033E-1,-3.299999982E-2,9.858000755E0
2.026122211E0,-9.900000691E-2,-4.005000368E-2,9.850950241E0
2.028622598E0,-1.039500013E-1,-4.005000368E-2,9.832050323E0
2.031123211E0,-1.110000089E-1,-4.005000368E-2,9.834000587E0
2.033623752E0,-1.129500046E-1,-3.705000132E-2,9.838950157E0
2.036124127E0,-1.180500090E-1,-2.805000171E-2,9.844050407E0
2.038624741E0,-1.009500027E-1,-2.100000158E-2,9.847950935E0
2.041125281E0,-1.200000048E-1,-9.000000544E-3,9.859950066E0
2.043625666E0,-1.080000028E-1,-3.299999982E-2,9.850950241E0
2.046126283E0,-1.129500046E-1,-1.800000109E-2,9.847950935E0
2.048626824E0,-8.400000632E-2,-2.805000171E-2,9.844050407E0
2.051127208E0,-8.700000495E-2,-3.705000132E-2,9.834000587E0
2.053627822E0,-7.200000435E-2,-4.200000316E-2,9.844050407E0
2.056128362E0,-7.200000435E-2,-4.695000127E-2,9.859950066E0
2.058628733E0,-8.205000311E-2,-5.205000192E-2,9.858000755E0
2.061129346E0,-7.695000619E-2,-3.705000132E-2,9.858000755E0
2.063629656E0,-6.795000285E-2,-4.005000368E-2,9.844050407E0
2.066130269E0,-6.000000238E-2,-3.000000119E-2,9.850950241E0
2.068630779E0,-6.300000101E-2,-3.000000119E-2,9.853050232E0
2.071131394E0,-8.400000632E-2,-1.800000109E-2,9.853050232E0
2.073631781E0,-8.205000311E-2,1.005000062E-2,9.856050491E0
2.076132394E0,-8.205000311E-2,2.400000021E-2,9.858000755E0
2.078632718E0,-9.600000083E-2,2.400000021E-2,9.847950935E0
2.081133331E0,-1.420500129E-1,4.500000179E-2,9.850950241E0
2.083633870E0,-1.440000087E-1,6.195000187E-2,9.835950851E0
2.086134256E0,-1.390500069E-1,7.695000619E-2,9.822000504E0
2.088634899E0,-1.469999999E-1,7.395000011E-2,9.838950157E0
2.091135439E0,-1.800000072E-1,7.905000448E-2,9.835950851E0
2.093635824E0,-1.800000072E-1,8.100000024E-2,9.841050148E0
2.096136437E0,-1.849500090E-1,4.800000042E-2,9.862950325E0
2.098636973E0,-1.469999999E-1,3.795000166E-2,9.834000587E0
2.101137357E0,-1.230000034E-1,1.905000024E-2,9.825000763E0
2.103637971E0,-1.129500046E-1,-6.000000052E-3,9.846000671E0
2.106138511E0,-9.600000083E-2,-9.000000544E-3,9.853050232E0
2.108638896E0,-9.195000678E-2,-2.295000106E-2,9.871950150E0
2.111139519E0,-8.700000495E-2,-2.295000106E-2,9.853050232E0
2.113640060E0,-8.700000495E-2,-3.000000119E-2,9.858000755E0
2.116140444E0,-6.495000422E-2,-2.505000122E-2,9.847950935E0
2.118641058E0,-6.000000238E-2,-1.305000018E-2,9.844050407E0
2.121141598E0,-5.805000290E-2,-1.305000018E-2,9.846000671E0
2.123641983E0,-1.995000057E-2,-4.050000105E-3,9.858000755E0
2.126142596E0,-1.305000018E-2,-1.095000096E-2,9.865050316E0
2.128643137E0,-1.500000060E-2,-1.605000161E-2,9.870000839E0
2.131143521E0,-3.195000067E-2,1.395000052E-2,9.859950066E0
2.133644044E0,-7.950000465E-3,1.950000064E-3,9.853050232E0
2.136144659E0,1.500000060E-2,2.400000021E-2,9.825000763E0
2.138645046E0,6.000000052E-3,0.000000000E0,9.841050148E0
2.141145582E0,7.950000465E-3,0.000000000E0,9.847950935E0
2.143646196E0,1.500000060E-2,-9.000000544E-3,9.856050491E0
2.146146583E0,-2.505000122E-2,1.950000064E-3,9.868050575E0
2.148647120E0,1.005000062E-2,0.000000000E0,9.862950325E0
2.151147506E0,-1.050000079E-3,-1.050000079E-3,9.858000755E0
2.153648116E0,-7.950000465E-3,-4.050000105E-3,9.846000671E0
2.156148656E0,-2.700000070E-2,0.000000000E0,9.834000587E0
2.158649041E0,-2.205000073E-2,1.395000052E-2,9.834000587E0
2.161149654E0,-5.805000290E-2,2.895000204E-2,9.838950157E0
2.163650209E0,-7.695000619E-2,3.600000218E-2,9.838950157E0
2.166150593E0,-7.500000298E-2,6.495000422E-2,9.865050316E0
2.168651207E0,-7.995000482E-2,7.200000435E-2,9.844050407E0
2.171151747E0,-9.900000691E-2,7.395000011E-2,9.838950157E0
2.173652137E0,-7.200000435E-2,8.595000207E-2,9.847950935E0
2.176152673E0,-8.895000070E-2,8.400000632E-2,9.838950157E0
2.178653288E0,-9.195000678E-2,8.595000207E-2,9.841050148E0
2.181153675E0,-8.205000311E-2,6.495000422E-2,9.865050316E0
2.183654192E0,-1.039500013E-1,5.505000427E-2,9.844050407E0
2.186154807E0,-7.995000482E-2,5.295000225E-2,9.859950066E0
2.188655194E0,-6.795000285E-2,1.905000024E-2,9.850950241E0
2.191155730E0,-6.000000238E-2,4.950000439E-3,9.838950157E0
2.193656341E0,-7.695000619E-2,-1.605000161E-2,9.844050407E0
2.196156728E0,-6.495000422E-2,-4.200000316E-2,9.859950066E0
2.198657265E0,-5.100000277E-2,-4.695000127E-2,9.858000755E0
2.201157880E0,-5.805000290E-2,-6.105000153E-2,9.862950325E0
2.203658267E0,-7.500000298E-2,-7.095000148E-2,9.859950066E0
2.206158812E0,-8.205000311E-2,-7.304999977E-2,9.862950325E0
2.208659427E0,-7.005000114E-2,-7.095000148E-2,9.844050407E0
2.211159814E0,-7.995000482E-2,-8.505000174E-2,9.841050148E0
2.213660350E0,-7.500000298E-2,-6.405000389E-2,9.844050407E0
2.216160976E0,-1.060500070E-1,-6.599999964E-2,9.841050148E0
2.218661362E0,-1.159500033E-1,-4.500000179E-2,9.847950935E0
2.221161899E0,-1.249500066E-1,-4.500000179E-2,9.847950935E0
2.223662514E0,-1.080000028E-1,-2.505000122E-2,9.844050407E0
2.226162829E0,-9.405000508E-2,-1.305000018E-2,9.844050407E0
2.228663442E0,-9.600000083E-2,-2.295000106E-2,9.835950851E0
2.231163829E0,-9.600000083E-2,-2.100000158E-2,9.834000587E0
2.233664366E0,-1.009500027E-1,-1.605000161E-2,9.838950157E0
2.236164995E0,-9.600000083E-2,1.950000064E-3,9.844050407E0
2.238665382E0,-8.205000311E-2,-1.305000018E-2,9.853050232E0
2.241165918E0,-6.300000101E-2,-2.505000122E-2,9.850950241E0
2.243666533E0,-8.400000632E-2,-3.495000303E-2,9.847950935E0
2.246166920E0,-6.495000422E-2,-4.500000179E-2,9.835950851E0
2.248667451E0,-8.400000632E-2,-3.000000119E-2,9.853050232E0
2.251168067E0,-9.195000678E-2,-4.200000316E-2,9.865050316E0
2.253668454E0,-9.195000678E-2,-3.000000119E-2,9.844050407E0
2.256168990E0,-1.009500027E-1,-5.400000140E-2,9.862950325E0
2.258669591E0,-9.900000691E-2,-2.805000171E-2,9.841050148E0
2.261169978E0,-7.005000114E-2,-2.505000122E-2,9.853050232E0
2.263670514E0,-6.495000422E-2,-4.005000368E-2,9.850950241E0
2.266171130E0,-6.495000422E-2,-4.695000127E-2,9.850950241E0
2.268671506E0,-7.005000114E-2,-4.500000179E-2,9.856050491E0
2.271172043E0,-5.805000290E-2,-6.599999964E-2,9.871950150E0
2.273672658E0,-2.700000070E-2,-6.105000153E-2,9.862950325E0
2.276173045E0,-2.895000204E-2,-7.995000482E-2,9.853050232E0
2.278673567E0,-3.405000269E-2,-6.795000285E-2,9.846000671E0
2.281173954E0,-4.095000029E-2,-5.895000324E-2,9.841050148E0
2.283674567E0,-3.705000132E-2,-6.795000285E-2,9.847950935E0
2.286175108E0,-6.795000285E-2,-6.599999964E-2,9.847950935E0
2.288675493E0,-5.595000088E-2,-5.400000140E-2,9.862950325E0
2.291176106E0,-6.300000101E-2,-3.705000132E-2,9.858000755E0
2.293676646E0,-5.595000088E-2,-5.205000192E-2,9.859950066E0
2.296177031E0,-5.805000290E-2,-4.200000316E-2,9.846000671E0
2.298677567E0,-4.095000029E-2,-3.000000119E-2,9.856050491E0
2.301178197E0,-4.395000264E-2,-2.505000122E-2,9.826950073E0
2.303678583E0,-3.195000067E-2,-1.800000109E-2,9.853050232E0
2.306179197E0,-4.395000264E-2,1.395000052E-2,9.835950851E0
2.308679507E0,-2.205000073E-2,1.200000010E-2,9.865050316E0
2.311180135E0,-4.950000439E-3,1.200000010E-2,9.858000755E0
2.313680673E0,1.500000060E-2,3.299999982E-2,9.834000587E0
2.316181289E0,-1.050000079E-3,5.505000427E-2,9.838950157E0
2.318681675E0,-1.050000079E-3,6.000000238E-2,9.858000755E0
2.321182212E0,-1.050000079E-3,6.195000187E-2,9.856050491E0
2.323682604E0,-1.500000060E-2,7.200000435E-2,9.868050575E0
2.326183217E0,-1.695000008E-2,5.505000427E-2,9.858000755E0
2.328683757E0,-4.950000439E-3,7.395000011E-2,9.850950241E0
2.331184142E0,-1.695000008E-2,5.295000225E-2,9.841050148E0
2.333684755E0,-2.700000070E-2,3.600000218E-2,9.853050232E0
2.336185296E0,-2.700000070E-2,3.600000218E-2,9.847950935E0
2.338685680E0,-4.095000029E-2,1.695000008E-2,9.853050232E0
2.341186294E0,-5.295000225E-2,1.200000010E-2,9.859950066E0
2.343686839E0,-5.295000225E-2,0.000000000E0,9.870000839E0
2.346187224E0,-6.000000238E-2,1.395000052E-2,9.856050491E0
2.348687837E0,-5.100000277E-2,1.950000064E-3,9.859950066E0
2.351188378E0,-3.900000080E-2,1.200000010E-2,9.832050323E0
2.353688757E0,-5.295000225E-2,-1.305000018E-2,9.856050491E0
2.356189371E0,-4.605000094E-2,-1.095000096E-2,9.846000671E0
2.358689911E0,-5.295000225E-2,-1.800000109E-2,9.874950409E0
2.361190296E0,-3.900000080E-2,-1.800000109E-2,9.870000839E0
2.363690914E0,-3.195000067E-2,-3.000000119E-2,9.856050491E0
2.366191455E0,-1.050000079E-3,-4.005000368E-2,9.838950157E0
2.368691839E0,1.050000079E-3,-2.805000171E-2,9.835950851E0
2.371192376E0,-7.950000465E-3,-3.299999982E-2,9.835950851E0
2.373692991E0,-4.950000439E-3,-4.005000368E-2,9.853050232E0
2.376193373E0,-1.695000008E-2,-2.295000106E-2,9.853050232E0
2.378693909E0,-1.305000018E-2,-6.000000052E-3,9.862950325E0
2.381194296E0,-1.500000060E-2,-2.100000158E-2,9.862950325E0
2.383694909E0,-4.395000264E-2,-5.205000192E-2,9.838950157E0
2.386195440E0,-2.505000122E-2,-3.000000119E-2,9.838950157E0
2.388695824E0,-2.895000204E-2,-1.095000096E-2,9.841050148E0
2.391196438E0,-2.895000204E-2,2.400000021E-2,9.822000504E0
2.393696978E0,-4.905000329E-2,4.800000042E-2,9.858000755E0
2.396197363E0,-3.405000269E-2,4.500000179E-2,9.850950241E0
2.398697885E0,-3.900000080E-2,3.795000166E-2,9.858000755E0
2.401198501E0,-2.700000070E-2,1.200000010E-2,9.844050407E0
2.403698887E0,-2.895000204E-2,7.050000131E-3,9.856050491E0
2.406199424E0,-4.095000029E-2,-6.000000052E-3,9.838950157E0
2.408700039E0,-6.300000101E-2,-4.005000368E-2,9.844050407E0
2.411200426E0,-6.495000422E-2,-5.700000376E-2,9.856050491E0
2.413700962E0,-7.005000114E-2,-7.095000148E-2,9.862950325E0
2.416201578E0,-8.895000070E-2,-6.795000285E-2,9.856050491E0
2.418701969E0,-9.405000508E-2,-9.195000678E-2,9.850950241E0
2.421202506E0,-1.039500013E-1,-1.039500013E-1,9.834000587E0
2.423703121E0,-1.180500090E-1,-9.000000358E-2,9.844050407E0
2.426203508E0,-1.159500033E-1,-8.805000782E-2,9.847950935E0
2.428704044E0,-1.440000087E-1,-8.295000345E-2,9.846000671E0
2.431204660E0,-1.660500020E-1,-7.095000148E-2,9.858000755E0
2.433705046E0,-1.680000126E-1,-6.599999964E-2,9.844050407E0
2.436205583E0,-1.630500108E-1,-6.405000389E-2,9.847950935E0
2.438706198E0,-1.560000032E-1,-4.695000127E-2,9.832050323E0
2.441206619E0,-1.560000032E-1,-3.705000132E-2,9.835950851E0
2.443707155E0,-1.729500145E-1,-4.005000368E-2,9.844050407E0
2.446207771E0,-1.900500059E-1,-3.000000119E-2,9.847950935E0
2.448708157E0,-2.179500163E-1,-7.304999977E-2,9.856050491E0
2.451208693E0,-2.260500044E-1,-7.605000585E-2,9.846000671E0
2.453709308E0,-1.729500145E-1,-7.605000585E-2,9.838950157E0
2.456209618E0,-1.609500051E-1,-4.695000127E-2,9.820050240E0
2.458710231E0,-1.849500090E-1,5.700000376E-2,9.847950935E0
2.461210618E0,-1.849500090E-1,9.105000645E-2,9.847950935E0
2.463711217E0,-1.560000032E-1,8.595000207E-2,9.859950066E0
2.466211758E0,-1.319999993E-1,7.905000448E-2,9.877050400E0
2.468712142E0,-1.159500033E-1,7.200000435E-2,9.858000755E0
2.471212679E0,-1.060500070E-1,5.505000427E-2,9.853050232E0
2.473713284E0,-8.400000632E-2,5.700000376E-2,9.825000763E0
2.476213671E0,-7.500000298E-2,6.495000422E-2,9.838950157E0
2.478714207E0,-4.605000094E-2,7.905000448E-2,9.838950157E0
2.481214823E0,-4.605000094E-2,7.200000435E-2,9.853050232E0
2.483715199E0,-5.805000290E-2,7.200000435E-2,9.868050575E0
2.486215736E0,-5.295000225E-2,6.705000252E-2,9.859950066E0
2.488716351E0,-4.950000439E-3,4.500000179E-2,9.858000755E0
2.491216738E0,1.500000060E-2,4.995000362E-2,9.835950851E0
2.493717259E0,1.305000018E-2,4.305000231E-2,9.835950851E0
2.496217875E0,3.000000026E-3,1.950000064E-3,9.834000587E0
2.498718261E0,-7.950000465E-3,1.395000052E-2,9.846000671E0
2.501218798E0,6.000000052E-3,1.695000008E-2,9.870000839E0
2.503719199E0,-1.995000057E-2,1.395000052E-2,9.865050316E0
2.506219813E0,7.950000465E-3,4.305000231E-2,9.856050491E0
2.508720353E0,3.000000026E-3,4.305000231E-2,9.834000587E0
2.511220738E0,1.005000062E-2,3.795000166E-2,9.838950157E0
2.513721341E0,1.500000060E-2,3.299999982E-2,9.847950935E0
2.516221882E0,-2.505000122E-2,4.995000362E-2,9.870000839E0
2.518722266E0,-4.605000094E-2,5.295000225E-2,9.865050316E0
2.521222880E0,-7.995000482E-2,4.800000042E-2,9.865050316E0
2.523723420E0,-7.500000298E-2,3.105000220E-2,9.853050232E0
2.526223805E0,-7.200000435E-2,3.600000218E-2,9.834000587E0
2.528724418E0,-7.995000482E-2,1.200000010E-2,9.826950073E0
2.531224959E0,-8.700000495E-2,2.595000155E-2,9.820050240E0
2.533725343E0,-7.695000619E-2,-1.050000079E-3,9.858000755E0
2.536225962E0,-7.200000435E-2,1.695000008E-2,9.858000755E0
2.538726271E0,-5.595000088E-2,-1.305000018E-2,9.847950935E0
2.541226885E0,-3.705000132E-2,-2.805000171E-2,9.847950935E0
2.543727423E0,-3.900000080E-2,-9.000000544E-3,9.844050407E0
2.546228039E0,-5.295000225E-2,-4.050000105E-3,9.850950241E0
2.548728425E0,-3.195000067E-2,-1.305000018E-2,9.858000755E0
2.551229039E0,-2.700000070E-2,-1.095000096E-2,9.874950409E0
2.553729348E0,-4.095000029E-2,-4.050000105E-3,9.870000839E0
2.556229962E0,-4.605000094E-2,-9.000000544E-3,9.862950325E0
2.558730495E0,-4.905000329E-2,0.000000000E0,9.862950325E0
2.561230882E0,-4.095000029E-2,-4.050000105E-3,9.853050232E0
2.563731495E0,-5.295000225E-2,1.395000052E-2,9.847950935E0
2.566232036E0,-7.005000114E-2,2.400000021E-2,9.838950157E0
2.568732420E0,-8.700000495E-2,2.595000155E-2,9.847950935E0
2.571233034E0,-1.369500011E-1,6.000000238E-2,9.862950325E0
2.573733574E0,-1.510500014E-1,6.000000238E-2,9.868050575E0
2.576233959E0,-1.540500075E-1,6.495000422E-2,9.844050407E0
2.578734572E0,-1.510500014E-1,4.500000179E-2,9.820050240E0
2.581235113E0,-1.609500051E-1,5.505000427E-2,9.832050323E0
2.583735497E0,-1.900500059E-1,2.895000204E-2,9.844050407E0
2.586236111E0,-1.780500114E-1,5.505000427E-2,9.847950935E0
2.588736665E0,-1.800000072E-1,4.305000231E-2,9.868050575E0
2.591237050E0,-1.609500051E-1,2.205000073E-2,9.838950157E0
2.593737586E0,-1.609500051E-1,1.950000064E-3,9.847950935E0
2.596238202E0,-1.489500105E-1,1.005000062E-2,9.841050148E0
2.598738588E0,-1.469999999E-1,2.595000155E-2,9.844050407E0
2.601239217E0,-1.420500129E-1,2.595000155E-2,9.847950935E0
2.603739757E0,-1.230000034E-1,1.200000010E-2,9.846000671E0
2.606240142E0,-1.230000034E-1,0.000000000E0,9.834000587E0
2.608740678E0,-1.200000048E-1,-1.050000079E-3,9.853050232E0
2.611241274E0,-1.060500070E-1,-6.000000052E-3,9.846000671E0
2.613741660E0,-8.700000495E-2,-1.605000161E-2,9.862950325E0
2.616242197E0,-9.600000083E-2,-2.100000158E-2,9.846000671E0
2.618742583E0,-9.405000508E-2,1.950000064E-3,9.844050407E0
2.621243231E0,-9.405000508E-2,-4.050000105E-3,9.858000755E0
2.623743771E0,-8.895000070E-2,1.395000052E-2,9.856050491E0
2.626244156E0,-8.895000070E-2,3.105000220E-2,9.847950935E0
2.628744692E0,-9.600000083E-2,1.905000024E-2,9.853050232E0
2.631245313E0,-8.895000070E-2,4.500000179E-2,9.850950241E0
2.633745699E0,-8.205000311E-2,1.005000062E-2,9.862950325E0
2.636246236E0,-9.600000083E-2,1.905000024E-2,9.858000755E0
2.638746851E0,-8.400000632E-2,2.895000204E-2,9.844050407E0
2.641247238E0,-9.600000083E-2,5.295000225E-2,9.859950066E0
2.643747783E0,-1.230000034E-1,6.705000252E-2,9.858000755E0
2.646248399E0,-1.230000034E-1,5.505000427E-2,9.856050491E0
2.648748785E0,-1.039500013E-1,5.295000225E-2,9.846000671E0
2.651249322E0,-9.195000678E-2,6.195000187E-2,9.846000671E0
2.653749932E0,-1.080000028E-1,7.905000448E-2,9.844050407E0
2.656250319E0,-1.230000034E-1,8.100000024E-2,9.844050407E0
2.658750855E0,-1.009500027E-1,8.400000632E-2,9.850950241E0
2.661251470E0,-9.405000508E-2,7.695000619E-2,9.856050491E0
2.663751867E0,-6.000000238E-2,5.295000225E-2,9.832050323E0
2.666252404E0,-4.605000094E-2,6.195000187E-2,9.856050491E0
2.668753019E0,-5.100000277E-2,3.299999982E-2,9.846000671E0
2.671253406E0,-4.395000264E-2,4.950000439E-3,9.834000587E0
2.673753942E0,-2.505000122E-2,1.005000062E-2,9.838950157E0
2.676254543E0,-2.205000073E-2,7.050000131E-3,9.865050316E0
2.678754930E0,-1.995000057E-2,-1.305000018E-2,9.835950851E0
2.681255467E0,-2.895000204E-2,-1.305000018E-2,9.856050491E0
2.683756082E0,-3.195000067E-2,-3.299999982E-2,9.846000671E0
2.686256469E0,-2.205000073E-2,-3.705000132E-2,9.835950851E0
2.688757009E0,-3.195000067E-2,-3.000000119E-2,9.835950851E0
2.691257396E0,-6.795000285E-2,-2.805000171E-2,9.853050232E0
2.693758009E0,-9.195000678E-2,-2.805000171E-2,9.850950241E0
2.696258549E0,-1.110000089E-1,-2.295000106E-2,9.853050232E0
2.698758939E0,-1.200000048E-1,1.950000064E-3,9.835950851E0
2.701259476E0,-1.009500027E-1,1.200000010E-2,9.841050148E0
2.703760091E0,-1.080000028E-1,2.400000021E-2,9.841050148E0
2.706260478E0,-1.200000048E-1,2.400000021E-2,9.850950241E0
2.708761014E0,-1.180500090E-1,4.095000029E-2,9.838950157E0
2.711261629E0,-1.180500090E-1,4.500000179E-2,9.850950241E0
2.713762016E0,-1.060500070E-1,6.000000238E-2,9.868050575E0
2.716262553E0,-8.895000070E-2,4.995000362E-2,9.862950325E0
2.718763173E0,-8.205000311E-2,2.595000155E-2,9.853050232E0
2.721263560E0,-7.500000298E-2,3.795000166E-2,9.847950935E0
2.723764096E0,-7.005000114E-2,3.299999982E-2,9.841050148E0
2.726264483E0,-7.005000114E-2,3.600000218E-2,9.838950157E0
2.728765110E0,-7.500000298E-2,4.095000029E-2,9.834000587E0
2.731265650E0,-1.080000028E-1,3.299999982E-2,9.850950241E0
2.733766264E0,-9.600000083E-2,2.895000204E-2,9.858000755E0
2.736266650E0,-8.700000495E-2,4.500000179E-2,9.846000671E0
2.738767202E0,-6.495000422E-2,2.895000204E-2,9.835950851E0
2.741267589E0,-7.695000619E-2,3.600000218E-2,9.838950157E0
2.743768202E0,-1.230000034E-1,3.299999982E-2,9.846000671E0
2.746268742E0,-1.200000048E-1,4.305000231E-2,9.850950241E0
2.748769127E0,-1.129500046E-1,5.295000225E-2,9.844050407E0
2.751269740E0,-1.180500090E-1,6.495000422E-2,9.841050148E0
2.753770281E0,-1.300500035E-1,4.500000179E-2,9.838950157E0
2.756270666E0,-1.390500069E-1,3.105000220E-2,9.829050064E0
2.758771279E0,-1.609500051E-1,3.600000218E-2,9.834000587E0
2.761271809E0,-1.710000038E-1,3.795000166E-2,9.847950935E0
2.763772194E0,-1.830000132E-1,1.905000024E-2,9.838950157E0
2.766272807E0,-1.780500114E-1,3.105000220E-2,9.862950325E0
2.768773348E0,-1.830000132E-1,-1.605000161E-2,9.846000671E0
2.771273738E0,-1.900500059E-1,-2.295000106E-2,9.835950851E0
2.773774274E0,-1.590000093E-1,-2.295000106E-2,9.835950851E0
2.776274889E0,-1.390500069E-1,-1.095000096E-2,9.834000587E0
2.778775276E0,-1.319999993E-1,-2.295000106E-2,9.850950241E0
2.781275898E0,-1.540500075E-1,-2.100000158E-2,9.846000671E0
2.783776208E0,-1.350000054E-1,-4.050000105E-3,9.862950325E0
2.786276821E0,-1.249500066E-1,-1.305000018E-2,9.862950325E0
2.788777360E0,-8.895000070E-2,-1.305000018E-2,9.850950241E0
2.791277932E0,-7.005000114E-2,-2.100000158E-2,9.834000587E0
2.793778319E0,-6.495000422E-2,-6.000000052E-3,9.835950851E0
2.796278855E0,-5.805000290E-2,-1.800000109E-2,9.841050148E0
2.798779242E0,-3.900000080E-2,-2.295000106E-2,9.856050491E0
2.801279855E0,1.050000079E-3,-4.200000316E-2,9.870000839E0
2.803780406E0,3.900000080E-2,-5.205000192E-2,9.844050407E0
2.806280791E0,5.805000290E-2,-6.105000153E-2,9.847950935E0
2.808781404E0,7.995000482E-2,-5.400000140E-2,9.858000755E0
2.811281944E0,1.090500057E-1,-5.400000140E-2,9.856050491E0
2.813782305E0,1.039500013E-1,-7.095000148E-2,9.874950409E0
2.816282841E0,1.180500090E-1,-4.005000368E-2,9.882000923E0
2.818783457E0,1.369500011E-1,-4.500000179E-2,9.871950150E0
2.821283843E0,1.230000034E-1,-3.299999982E-2,9.862950325E0
2.823784384E0,1.519500017E-1,-4.905000329E-2,9.865050316E0
2.826284999E0,1.780500114E-1,-3.705000132E-2,9.865050316E0
2.828785386E0,1.590000093E-1,-6.105000153E-2,9.856050491E0
2.831285922E0,1.660500020E-1,-1.800000109E-2,9.858000755E0
2.833786529E0,1.590000093E-1,-1.050000079E-3,9.868050575E0
2.836286915E0,1.990500093E-1,-2.805000171E-2,9.892050743E0
2.838787452E0,1.590000093E-1,1.695000008E-2,9.877050400E0
2.841288067E0,1.560000032E-1,2.595000155E-2,9.856050491E0
2.843788454E0,1.300500035E-1,7.905000448E-2,9.844050407E0
2.846288990E0,9.195000678E-2,1.270500124E-1,9.847950935E0
2.848789606E0,7.005000114E-2,1.560000032E-1,9.850950241E0
2.851289992E0,2.505000122E-2,1.870500147E-1,9.856050491E0
2.853790529E0,-7.950000465E-3,2.010000050E-1,9.847950935E0
2.856291144E0,-1.995000057E-2,2.010000050E-1,9.846000671E0
2.858791531E0,-3.705000132E-2,1.870500147E-1,9.834000587E0
2.861292067E0,-3.900000080E-2,1.720500141E-1,9.847950935E0
2.863792683E0,-2.205000073E-2,1.680000126E-1,9.841050148E0
2.866292992E0,-4.095000029E-2,1.270500124E-1,9.835950851E0
2.868793606E0,-5.595000088E-2,1.200000048E-1,9.862950325E0
2.871293992E0,-5.805000290E-2,9.300000221E-2,9.871950150E0
2.873794529E0,-6.495000422E-2,5.700000376E-2,9.858000755E0
2.876295144E0,-7.005000114E-2,6.495000422E-2,9.856050491E0
2.878795531E0,-1.009500027E-1,5.295000225E-2,9.846000671E0
2.881296067E0,-1.039500013E-1,2.895000204E-2,9.835950851E0
2.883796683E0,-1.420500129E-1,3.105000220E-2,9.844050407E0
2.886297054E0,-1.489500105E-1,1.905000024E-2,9.835950851E0
2.888797591E0,-1.870500147E-1,1.695000008E-2,9.835950851E0
2.891298206E0,-1.800000072E-1,2.895000204E-2,9.841050148E0
2.893798593E0,-1.990500093E-1,1.395000052E-2,9.834000587E0
2.896299115E0,-1.800000072E-1,1.200000010E-2,9.835950851E0
2.898799502E0,-1.590000093E-1,-4.050000105E-3,9.838950157E0
2.901300115E0,-1.489500105E-1,-3.000000119E-2,9.846000671E0
2.903800656E0,-1.319999993E-1,-2.100000158E-2,9.859950066E0
2.906301040E0,-1.039500013E-1,-4.695000127E-2,9.832050323E0
2.908801664E0,-8.895000070E-2,-5.400000140E-2,9.841050148E0
2.911302204E0,-6.495000422E-2,-7.605000585E-2,9.844050407E0
2.913802589E0,-6.000000238E-2,-6.599999964E-2,9.841050148E0
2.916303202E0,-5.295000225E-2,-6.599999964E-2,9.838950157E0
2.918803752E0,-3.195000067E-2,-6.599999964E-2,9.847950935E0
2.921304136E0,-3.900000080E-2,-6.405000389E-2,9.853050232E0
2.923804750E0,-3.405000269E-2,-6.105000153E-2,9.856050491E0
2.926305290E0,-4.605000094E-2,-5.700000376E-2,9.847950935E0
2.928805675E0,-2.700000070E-2,-3.000000119E-2,9.847950935E0
2.931306206E0,-2.895000204E-2,0.000000000E0,9.835950851E0
2.933806822E0,-4.950000439E-3,7.050000131E-3,9.850950241E0
2.936307208E0,-1.305000018E-2,2.400000021E-2,9.829050064E0
2.938807822E0,-3.405000269E-2,4.995000362E-2,9.858000755E0
2.941308112E0,-2.505000122E-2,3.795000166E-2,9.865050316E0
2.943808726E0,-2.205000073E-2,3.299999982E-2,9.850950241E0
2.946309264E0,-1.695000008E-2,2.595000155E-2,9.846000671E0
2.948809651E0,-1.305000018E-2,2.895000204E-2,9.859950066E0
2.951310250E0,3.000000026E-3,1.395000052E-2,9.856050491E0
2.953810791E0,2.505000122E-2,1.395000052E-2,9.862950325E0
2.956311175E0,1.500000060E-2,1.005000062E-2,9.853050232E0
2.958811789E0,7.950000465E-3,1.905000024E-2,9.847950935E0
2.961312353E0,1.005000062E-2,1.005000062E-2,9.838950157E0
2.963812738E0,-1.050000079E-3,4.950000439E-3,9.846000671E0
2.966313351E0,-7.950000465E-3,4.305000231E-2,9.838950157E0
2.968813892E0,-1.005000062E-2,3.795000166E-2,9.853050232E0
2.971314276E0,-3.195000067E-2,2.895000204E-2,9.868050575E0
2.973814904E0,-5.805000290E-2,4.995000362E-2,9.859950066E0
2.976315444E0,-6.300000101E-2,5.295000225E-2,9.856050491E0
2.978815829E0,-7.500000298E-2,6.195000187E-2,9.853050232E0
2.981316365E0,-8.205000311E-2,6.495000422E-2,9.847950935E0
2.983816991E0,-8.400000632E-2,6.495000422E-2,9.835950851E0
2.986317377E0,-7.695000619E-2,3.105000220E-2,9.853050232E0
2.988817914E0,-7.005000114E-2,1.395000052E-2,9.862950325E0
2.991318529E0,-5.295000225E-2,0.000000000E0,9.850950241E0
2.993818936E0,-6.495000422E-2,-1.095000096E-2,9.858000755E0
2.996319472E0,-5.295000225E-2,-2.295000106E-2,9.844050407E0
2.998820088E0,-5.100000277E-2,-3.495000303E-2,9.832050323E0
3.001320474E0,-4.395000264E-2,-4.005000368E-2,9.829050064E0
3.003821020E0,-4.605000094E-2,-4.005000368E-2,9.853050232E0
3.006321635E0,-3.405000269E-2,-3.495000303E-2,9.856050491E0
3.008821945E0,-5.595000088E-2,-3.705000132E-2,9.858000755E0
3.011322558E0,-7.695000619E-2,-1.605000161E-2,9.868050575E0
3.013822955E0,-1.060500070E-1,-6.000000052E-3,9.856050491E0
3.016323568E0,-8.400000632E-2,-1.095000096E-2,9.838950157E0
3.018824109E0,-1.080000028E-1,1.905000024E-2,9.826950073E0
3.021324493E0,-1.350000054E-1,1.395000052E-2,9.850950241E0
3.023825016E0,-1.469999999E-1,3.795000166E-2,9.847950935E0
3.026325631E0,-1.540500075E-1,6.495000422E-2,9.841050148E0
3.028826018E0,-1.590000093E-1,6.900000572E-2,9.838950157E0
3.031326631E0,-1.660500020E-1,7.905000448E-2,9.841050148E0
3.033827172E0,-1.369500011E-1,7.905000448E-2,9.826950073E0
3.036327531E0,-1.249500066E-1,7.200000435E-2,9.847950935E0
3.038828068E0,-1.180500090E-1,7.395000011E-2,9.841050148E0
3.041328454E0,-1.110000089E-1,7.395000011E-2,9.853050232E0
3.043829068E0,-1.009500027E-1,8.595000207E-2,9.850950241E0
3.046329594E0,-1.060500070E-1,1.030500084E-1,9.850950241E0
3.048829979E0,-1.180500090E-1,1.030500084E-1,9.846000671E0
3.051330592E0,-1.039500013E-1,9.300000221E-2,9.841050148E0
3.053831133E0,-7.695000619E-2,1.120500043E-1,9.834000587E0
3.056331517E0,-8.895000070E-2,8.400000632E-2,9.846000671E0
3.058832136E0,-9.600000083E-2,7.395000011E-2,9.846000671E0
3.061332676E0,-1.249500066E-1,8.100000024E-2,9.856050491E0
3.063833061E0,-1.230000034E-1,1.080000028E-1,9.858000755E0
3.066333674E0,-1.300500035E-1,9.600000083E-2,9.853050232E0
3.068834205E0,-1.300500035E-1,9.105000645E-2,9.850950241E0
3.071334589E0,-1.080000028E-1,9.600000083E-2,9.838950157E0
3.073835203E0,-1.009500027E-1,8.895000070E-2,9.844050407E0
3.076335743E0,-8.400000632E-2,9.795000404E-2,9.846000671E0
3.078836113E0,-5.100000277E-2,7.695000619E-2,9.856050491E0
3.081336726E0,-3.900000080E-2,7.395000011E-2,9.862950325E0
3.083837267E0,-2.205000073E-2,6.195000187E-2,9.862950325E0
3.086337651E0,-2.205000073E-2,4.995000362E-2,9.859950066E0
3.088838265E0,1.005000062E-2,4.305000231E-2,9.865050316E0
3.091338801E0,4.095000029E-2,3.299999982E-2,9.847950935E0
3.093839186E0,3.405000269E-2,1.200000010E-2,9.858000755E0
3.096339722E0,1.500000060E-2,1.950000064E-3,9.850950241E0
3.098840338E0,-4.950000439E-3,1.950000064E-3,9.853050232E0
3.101340719E0,-1.050000079E-3,0.000000000E0,9.846000671E0
3.103841256E0,1.305000018E-2,-9.000000544E-3,9.856050491E0
3.106341642E0,1.005000062E-2,4.950000439E-3,9.838950157E0
3.108842256E0,-1.995000057E-2,4.950000439E-3,9.829050064E0
3.111342781E0,-5.295000225E-2,4.500000179E-2,9.844050407E0
3.113843166E0,-6.300000101E-2,7.200000435E-2,9.847950935E0
3.116343779E0,-8.895000070E-2,6.195000187E-2,9.846000671E0
3.118844320E0,-1.080000028E-1,7.905000448E-2,9.850950241E0
3.121344704E0,-1.279500127E-1,1.009500027E-1,9.846000671E0
3.123845241E0,-1.350000054E-1,9.105000645E-2,9.847950935E0
3.126345856E0,-1.279500127E-1,8.595000207E-2,9.832050323E0
3.128846243E0,-1.350000054E-1,9.600000083E-2,9.838950157E0
3.131346770E0,-1.469999999E-1,7.395000011E-2,9.834000587E0
3.133847386E0,-1.729500145E-1,6.495000422E-2,9.846000671E0
3.136347772E0,-1.660500020E-1,5.295000225E-2,9.829050064E0
3.138848309E0,-1.560000032E-1,3.105000220E-2,9.844050407E0
3.141348909E0,-1.319999993E-1,4.095000029E-2,9.829050064E0
3.143849296E0,-1.009500027E-1,3.795000166E-2,9.835950851E0
3.146349832E0,-1.039500013E-1,4.800000042E-2,9.838950157E0
3.148850448E0,-1.060500070E-1,1.395000052E-2,9.856050491E0
3.151350824E0,-8.400000632E-2,3.299999982E-2,9.859950066E0
3.153851361E0,-3.705000132E-2,7.050000131E-3,9.841050148E0
3.156351976E0,-1.995000057E-2,1.005000062E-2,9.862950325E0
3.158852363E0,-7.950000465E-3,1.695000008E-2,9.859950066E0
3.161352899E0,-1.005000062E-2,2.595000155E-2,9.859950066E0
3.163853481E0,1.800000109E-2,2.895000204E-2,9.850950241E0
3.166353867E0,4.395000264E-2,1.200000010E-2,9.856050491E0
3.168854404E0,4.095000029E-2,1.005000062E-2,9.853050232E0
3.171354790E0,4.395000264E-2,1.005000062E-2,9.858000755E0
3.173855404E0,3.900000080E-2,-4.050000105E-3,9.868050575E0
3.176355944E0,5.295000225E-2,7.050000131E-3,9.870000839E0
3.178856557E0,5.595000088E-2,1.695000008E-2,9.847950935E0
3.181356867E0,4.095000029E-2,4.095000029E-2,9.829050064E0
3.183857481E0,2.505000122E-2,3.105000220E-2,9.858000755E0
3.186357867E0,7.950000465E-3,4.095000029E-2,9.859950066E0
3.188858404E0,-3.000000026E-3,5.505000427E-2,9.858000755E0
3.191359019E0,-1.005000062E-2,4.500000179E-2,9.856050491E0
3.193859416E0,-2.895000204E-2,6.705000252E-2,9.835950851E0
3.196359952E0,-6.495000422E-2,7.695000619E-2,9.859950066E0
3.198860568E0,-7.995000482E-2,9.105000645E-2,9.834000587E0
3.201360954E0,-1.009500027E-1,1.080000028E-1,9.844050407E0
3.203861519E0,-1.080000028E-1,1.080000028E-1,9.838950157E0
3.206361905E0,-1.319999993E-1,1.200000048E-1,9.858000755E0
3.208862519E0,-1.510500014E-1,1.009500027E-1,9.856050491E0
3.211363059E0,-1.279500127E-1,1.080000028E-1,9.844050407E0
3.213863658E0,-1.180500090E-1,1.050000042E-1,9.846000671E0
3.216364045E0,-9.600000083E-2,9.105000645E-2,9.847950935E0
3.218864582E0,-8.700000495E-2,7.905000448E-2,9.834000587E0
3.221364968E0,-9.600000083E-2,6.000000238E-2,9.862950325E0
3.223865577E0,-6.795000285E-2,3.299999982E-2,9.859950066E0
3.226366117E0,-4.395000264E-2,1.005000062E-2,9.853050232E0
3.228866502E0,-2.505000122E-2,-1.095000096E-2,9.856050491E0
3.231367115E0,-3.195000067E-2,-1.800000109E-2,9.834000587E0
3.233867656E0,-2.895000204E-2,-2.295000106E-2,9.847950935E0
3.236368069E0,-2.505000122E-2,-4.005000368E-2,9.846000671E0
3.238868683E0,-1.995000057E-2,-6.105000153E-2,9.858000755E0
3.241369223E0,-4.950000439E-3,-4.905000329E-2,9.868050575E0
3.243869608E0,-1.305000018E-2,-5.205000192E-2,9.850950241E0
3.246370226E0,-2.205000073E-2,-5.400000140E-2,9.847950935E0
3.248870536E0,-4.095000029E-2,-4.695000127E-2,9.844050407E0
3.251371149E0,-4.605000094E-2,-3.705000132E-2,9.850950241E0
3.253871688E0,-3.900000080E-2,-5.400000140E-2,9.844050407E0
3.256372298E0,-5.100000277E-2,-5.400000140E-2,9.838950157E0
3.258872685E0,-8.205000311E-2,-7.605000585E-2,9.850950241E0
3.261373221E0,-7.695000619E-2,-6.599999964E-2,9.846000671E0
3.263873608E0,-7.995000482E-2,-6.405000389E-2,9.846000671E0
3.266374211E0,-7.500000298E-2,-8.805000782E-2,9.847950935E0
3.268874752E0,-8.205000311E-2,-8.295000345E-2,9.846000671E0
3.271375365E0,-9.405000508E-2,-5.895000324E-2,9.847950935E0
3.273875752E0,-1.009500027E-1,-5.700000376E-2,9.844050407E0
3.276376302E0,-9.195000678E-2,-5.205000192E-2,9.858000755E0
3.278876689E0,-9.900000691E-2,-5.400000140E-2,9.856050491E0
3.281377225E0,-1.039500013E-1,-3.000000119E-2,9.838950157E0
3.283877840E0,-1.039500013E-1,-2.295000106E-2,9.838950157E0
3.286378227E0,-9.600000083E-2,-9.000000544E-3,9.847950935E0
3.288878779E0,-9.405000508E-2,-1.800000109E-2,9.850950241E0
3.291379394E0,-7.995000482E-2,4.950000439E-3,9.858000755E0
3.293879781E0,-9.195000678E-2,1.200000010E-2,9.853050232E0
3.296380317E0,-8.700000495E-2,2.205000073E-2,9.853050232E0
3.298880922E0,-8.700000495E-2,7.050000131E-3,9.844050407E0
3.301381309E0,-6.795000285E-2,3.105000220E-2,9.846000671E0
3.303881846E0,-5.805000290E-2,1.905000024E-2,9.847950935E0
3.306382461E0,-4.905000329E-2,3.600000218E-2,9.858000755E0
3.308882843E0,-4.605000094E-2,1.395000052E-2,9.865050316E0
3.311383379E0,-2.505000122E-2,1.905000024E-2,9.862950325E0
3.313883994E0,1.005000062E-2,1.950000064E-3,9.844050407E0
3.316384381E0,1.800000109E-2,1.395000052E-2,9.846000671E0
3.318884918E0,1.500000060E-2,1.695000008E-2,9.856050491E0
3.321385548E0,2.700000070E-2,4.950000439E-3,9.856050491E0
3.323885935E0,5.295000225E-2,7.050000131E-3,9.859950066E0
3.326386471E0,7.005000114E-2,-4.050000105E-3,9.853050232E0
3.328886858E0,5.595000088E-2,1.005000062E-2,9.868050575E0
3.331387496E0,6.105000153E-2,1.395000052E-2,9.870000839E0
3.333888036E0,4.395000264E-2,2.400000021E-2,9.858000755E0
3.336388421E0,6.795000285E-2,2.400000021E-2,9.868050575E0
3.338889034E0,5.295000225E-2,3.299999982E-2,9.870000839E0
3.341389579E0,6.495000422E-2,2.400000021E-2,9.858000755E0
3.343889964E0,5.805000290E-2,5.505000427E-2,9.858000755E0
3.346390500E0,3.900000080E-2,6.195000187E-2,9.853050232E0
3.348891115E0,5.100000277E-2,4.995000362E-2,9.856050491E0
3.351391488E0,4.905000329E-2,8.100000024E-2,9.853050232E0
3.353892025E0,3.000000119E-2,5.700000376E-2,9.862950325E0
3.356392411E0,1.005000062E-2,7.695000619E-2,9.844050407E0
3.358893025E0,1.995000057E-2,8.100000024E-2,9.850950241E0
3.361393565E0,-1.305000018E-2,7.695000619E-2,9.859950066E0
3.363893960E0,-2.700000070E-2,1.009500027E-1,9.865050316E0
3.366394573E0,-2.505000122E-2,1.009500027E-1,9.853050232E0
3.368895113E0,-3.900000080E-2,1.080000028E-1,9.834000587E0
3.371395498E0,-4.395000264E-2,1.120500043E-1,9.850950241E0
3.373896101E0,-5.595000088E-2,1.080000028E-1,9.853050232E0
3.376396642E0,-5.295000225E-2,8.595000207E-2,9.844050407E0
3.378897027E0,-4.605000094E-2,6.495000422E-2,9.838950157E0
3.381397640E0,-7.200000435E-2,7.200000435E-2,9.841050148E0
3.383898209E0,-8.205000311E-2,5.295000225E-2,9.846000671E0
3.386398594E0,-6.795000285E-2,2.400000021E-2,9.832050323E0
3.388899207E0,-7.695000619E-2,3.299999982E-2,9.832050323E0
3.391399748E0,-7.200000435E-2,1.395000052E-2,9.844050407E0
3.393900142E0,-7.200000435E-2,0.000000000E0,9.858000755E0
3.396400755E0,-6.000000238E-2,7.050000131E-3,9.862950325E0
3.398901295E0,-5.595000088E-2,-6.000000052E-3,9.847950935E0
3.401401680E0,-6.495000422E-2,-9.000000544E-3,9.856050491E0
3.403902293E0,-7.695000619E-2,1.200000010E-2,9.829050064E0
3.406402594E0,-7.200000435E-2,1.005000062E-2,9.856050491E0
3.408903207E0,-5.595000088E-2,1.950000064E-3,9.846000671E0
3.411403746E0,-1.995000057E-2,1.005000062E-2,9.859950066E0
3.413904361E0,-4.095000029E-2,1.905000024E-2,9.838950157E0
3.416404762E0,-5.595000088E-2,4.305000231E-2,9.856050491E0
3.418905298E0,-3.900000080E-2,2.595000155E-2,9.865050316E0
3.421405914E0,-3.900000080E-2,3.105000220E-2,9.844050407E0
3.423906300E0,-4.605000094E-2,2.895000204E-2,9.865050316E0
3.426406852E0,-5.595000088E-2,4.095000029E-2,9.858000755E0
3.428907239E0,-5.805000290E-2,5.700000376E-2,9.865050316E0
3.431407775E0,-5.805000290E-2,4.800000042E-2,9.856050491E0
3.433908390E0,-7.200000435E-2,5.700000376E-2,9.858000755E0
3.436408796E0,-8.895000070E-2,4.995000362E-2,9.838950157E0
3.438909332E0,-8.400000632E-2,7.695000619E-2,9.847950935E0
3.441409948E0,-8.205000311E-2,6.900000572E-2,9.832050323E0
3.443910563E0,-8.700000495E-2,7.395000011E-2,9.856050491E0
3.446410882E0,-7.200000435E-2,7.695000619E-2,9.859950066E0
3.448911495E0,-4.905000329E-2,6.900000572E-2,9.853050232E0
3.451411882E0,-4.395000264E-2,4.095000029E-2,9.838950157E0
3.453912495E0,-1.995000057E-2,2.595000155E-2,9.838950157E0
3.456413036E0,-2.505000122E-2,3.795000166E-2,9.862950325E0
3.458913411E0,-1.695000008E-2,2.400000021E-2,9.847950935E0
3.461413948E0,-1.695000008E-2,1.200000010E-2,9.853050232E0
3.463914563E0,-7.950000465E-3,3.105000220E-2,9.856050491E0
3.466414950E0,-1.005000062E-2,1.950000064E-3,9.846000671E0
3.468915495E0,-1.305000018E-2,3.299999982E-2,9.856050491E0
3.471416111E0,7.950000465E-3,3.299999982E-2,9.856050491E0
3.473916497E0,1.005000062E-2,5.505000427E-2,9.859950066E0
3.476417034E0,2.700000070E-2,4.995000362E-2,9.853050232E0
3.478917421E0,4.605000094E-2,3.299999982E-2,9.846000671E0
3.481418034E0,2.700000070E-2,4.995000362E-2,9.853050232E0
3.483918574E0,4.395000264E-2,5.295000225E-2,9.858000755E0
3.486418959E0,6.495000422E-2,5.700000376E-2,9.850950241E0
3.488919505E0,6.495000422E-2,2.595000155E-2,9.850950241E0
3.491420121E0,3.900000080E-2,2.595000155E-2,9.847950935E0
3.493920507E0,3.405000269E-2,2.895000204E-2,9.858000755E0
3.496421121E0,3.405000269E-2,1.395000052E-2,9.853050232E0
3.498921655E0,2.700000070E-2,1.395000052E-2,9.859950066E0
3.501422040E0,-1.005000062E-2,1.905000024E-2,9.862950325E0
3.503922576E0,-1.305000018E-2,2.400000021E-2,9.868050575E0
3.506423192E0,-2.895000204E-2,3.795000166E-2,9.858000755E0
3.508923593E0,-1.305000018E-2,1.950000064E-3,9.858000755E0
3.511424207E0,-3.705000132E-2,2.595000155E-2,9.850950241E0
3.513924517E0,-4.905000329E-2,2.400000021E-2,9.850950241E0
3.516425130E0,-7.005000114E-2,5.295000225E-2,9.858000755E0
3.518925687E0,-7.500000298E-2,5.505000427E-2,9.859950066E0
3.521426303E0,-7.005000114E-2,5.700000376E-2,9.838950157E0
3.523926689E0,-9.195000678E-2,4.995000362E-2,9.846000671E0
3.526427226E0,-1.039500013E-1,4.095000029E-2,9.835950851E0
3.528927602E0,-1.060500070E-1,3.600000218E-2,9.844050407E0
3.531428216E0,-1.319999993E-1,4.305000231E-2,9.835950851E0
3.533928756E0,-1.319999993E-1,4.995000362E-2,9.846000671E0
3.536429141E0,-1.180500090E-1,3.105000220E-2,9.844050407E0
3.538929754E0,-1.350000054E-1,3.105000220E-2,9.847950935E0
3.541430286E0,-1.440000087E-1,-1.305000018E-2,9.846000671E0
3.543930670E0,-1.440000087E-1,2.205000073E-2,9.844050407E0
3.546431284E0,-1.300500035E-1,7.050000131E-3,9.841050148E0
3.548931824E0,-1.180500090E-1,1.695000008E-2,9.853050232E0
3.551432189E0,-1.230000034E-1,4.950000439E-3,9.841050148E0
3.553932725E0,-1.230000034E-1,-4.050000105E-3,9.850950241E0
3.556433341E0,-1.060500070E-1,-1.800000109E-2,9.850950241E0
3.558933727E0,-1.039500013E-1,-4.200000316E-2,9.835950851E0
3.561434255E0,-7.695000619E-2,-7.304999977E-2,9.841050148E0
3.563934870E0,-7.995000482E-2,-7.800000161E-2,9.835950851E0
3.566435257E0,-9.195000678E-2,-8.805000782E-2,9.844050407E0
3.568935793E0,-9.405000508E-2,-6.795000285E-2,9.847950935E0
3.571436409E0,-8.700000495E-2,-7.995000482E-2,9.865050316E0
3.573936785E0,-9.195000678E-2,-9.495000541E-2,9.844050407E0
3.576437322E0,-1.129500046E-1,-9.705000371E-2,9.856050491E0
3.578937937E0,-1.249500066E-1,-9.000000358E-2,9.850950241E0
3.581438247E0,-1.590000093E-1,-1.069500074E-1,9.835950851E0
3.583938846E0,-1.800000072E-1,-8.505000174E-2,9.832050323E0
3.586439233E0,-2.040000111E-1,-9.000000358E-2,9.832050323E0
3.588939846E0,-2.299500108E-1,-7.800000161E-2,9.841050148E0
3.591440387E0,-2.299500108E-1,-6.599999964E-2,9.838950157E0
3.593940762E0,-2.350500077E-1,-7.095000148E-2,9.844050407E0
3.596441299E0,-2.299500108E-1,-4.200000316E-2,9.832050323E0
3.598941914E0,-2.380500138E-1,-4.500000179E-2,9.838950157E0
3.601442301E0,-2.470500171E-1,-2.505000122E-2,9.835950851E0
3.603942837E0,-2.260500044E-1,-1.305000018E-2,9.835950851E0
3.606443438E0,-2.110500038E-1,-2.505000122E-2,9.835950851E0
3.608943824E0,-1.990500093E-1,1.200000010E-2,9.850950241E0
3.611444361E0,-1.750500053E-1,1.005000062E-2,9.853050232E0
3.613944976E0,-1.780500114E-1,7.050000131E-3,9.846000671E0
3.616445359E0,-1.830000132E-1,2.400000021E-2,9.850950241E0
3.618945895E0,-1.469999999E-1,4.305000231E-2,9.841050148E0
3.621446282E0,-1.440000087E-1,4.500000179E-2,9.856050491E0
3.623946895E0,-1.200000048E-1,4.995000362E-2,9.838950157E0
3.626447440E0,-1.110000089E-1,6.705000252E-2,9.853050232E0
3.628947824E0,-8.895000070E-2,8.400000632E-2,9.835950851E0
3.631448438E0,-7.200000435E-2,7.905000448E-2,9.856050491E0
3.633948978E0,-4.905000329E-2,7.695000619E-2,9.844050407E0
3.636449363E0,-3.195000067E-2,7.395000011E-2,9.859950066E0
3.638949981E0,-2.700000070E-2,8.595000207E-2,9.853050232E0
3.641450522E0,-4.950000439E-3,7.395000011E-2,9.862950325E0
3.643950906E0,1.800000109E-2,4.800000042E-2,9.870000839E0
3.646451520E0,3.705000132E-2,2.895000204E-2,9.870000839E0
3.648952041E0,4.605000094E-2,3.105000220E-2,9.870000839E0
3.651452426E0,5.805000290E-2,3.299999982E-2,9.870000839E0
3.653953039E0,4.395000264E-2,-4.050000105E-3,9.870000839E0
3.656453349E0,4.395000264E-2,-1.095000096E-2,9.856050491E0
3.658953952E0,4.605000094E-2,-1.095000096E-2,9.858000755E0
3.661454491E0,5.595000088E-2,-2.295000106E-2,9.853050232E0
3.663955106E0,5.805000290E-2,1.005000062E-2,9.870000839E0
3.666455493E0,3.000000119E-2,4.950000439E-3,9.853050232E0
3.668956024E0,1.005000062E-2,1.395000052E-2,9.847950935E0
3.671456411E0,2.205000073E-2,3.600000218E-2,9.853050232E0
3.673957024E0,1.500000060E-2,4.305000231E-2,9.847950935E0
3.676457565E0,7.950000465E-3,4.500000179E-2,9.858000755E0
3.678958163E0,1.050000079E-3,5.295000225E-2,9.858000755E0
3.681458550E0,1.050000079E-3,5.505000427E-2,9.853050232E0
3.683959086E0,-4.950000439E-3,7.695000619E-2,9.846000671E0
3.686459473E0,-1.695000008E-2,6.495000422E-2,9.853050232E0
3.688960086E0,-3.705000132E-2,8.595000207E-2,9.850950241E0
3.691460642E0,-4.605000094E-2,8.595000207E-2,9.859950066E0
3.693961255E0,-5.100000277E-2,9.795000404E-2,9.841050148E0
3.696461565E0,-5.100000277E-2,8.895000070E-2,9.850950241E0
3.698962178E0,-4.395000264E-2,1.170000061E-1,9.858000755E0
3.701462555E0,-5.295000225E-2,9.795000404E-2,9.841050148E0
3.703963091E0,-6.300000101E-2,9.105000645E-2,9.844050407E0
3.706463707E0,-6.495000422E-2,8.100000024E-2,9.846000671E0
3.708964093E0,-6.495000422E-2,7.395000011E-2,9.847950935E0
3.711464630E0,-8.400000632E-2,6.705000252E-2,9.853050232E0
3.713965259E0,-9.600000083E-2,4.500000179E-2,9.841050148E0
3.716465646E0,-8.895000070E-2,4.800000042E-2,9.841050148E0
3.718966182E0,-8.700000495E-2,3.600000218E-2,9.847950935E0
3.721466798E0,-9.405000508E-2,1.695000008E-2,9.838950157E0
3.723967175E0,-1.009500027E-1,-1.050000079E-3,9.847950935E0
3.726467712E0,-1.129500046E-1,1.395000052E-2,9.856050491E0
3.728968098E0,-1.110000089E-1,0.000000000E0,9.850950241E0
3.731468712E0,-9.900000691E-2,-2.505000122E-2,9.838950157E0
3.733969266E0,-9.900000691E-2,-3.000000119E-2,9.846000671E0
3.736469651E0,-1.060500070E-1,-2.295000106E-2,9.846000671E0
3.738970187E0,-8.895000070E-2,-2.805000171E-2,9.846000671E0
3.741470803E0,-8.700000495E-2,-2.505000122E-2,9.850950241E0
3.743971189E0,-8.895000070E-2,-5.205000192E-2,9.859950066E0
3.746471808E0,-1.060500070E-1,-3.299999982E-2,9.868050575E0
3.748972348E0,-9.195000678E-2,-3.299999982E-2,9.846000671E0
3.751472733E0,-8.700000495E-2,-2.295000106E-2,9.846000671E0
3.753973269E0,-9.900000691E-2,-1.050000079E-3,9.835950851E0
3.756473894E0,-1.110000089E-1,1.950000064E-3,9.841050148E0
3.758974280E0,-1.110000089E-1,-6.000000052E-3,9.853050232E0
3.761474894E0,-1.319999993E-1,-6.000000052E-3,9.844050407E0
3.763975203E0,-1.200000048E-1,1.005000062E-2,9.853050232E0
3.766475822E0,-1.249500066E-1,1.200000010E-2,9.834000587E0
3.768976360E0,-1.129500046E-1,4.095000029E-2,9.841050148E0
3.771476747E0,-1.230000034E-1,3.795000166E-2,9.834000587E0
3.773977360E0,-1.249500066E-1,4.095000029E-2,9.844050407E0
3.776477901E0,-1.200000048E-1,4.305000231E-2,9.832050323E0
3.778978285E0,-1.159500033E-1,7.200000435E-2,9.850950241E0
3.781478899E0,-1.180500090E-1,8.100000024E-2,9.853050232E0
3.783979439E0,-1.279500127E-1,6.705000252E-2,9.862950325E0
3.786479824E0,-1.200000048E-1,8.595000207E-2,9.838950157E0
3.788980442E0,-1.180500090E-1,9.105000645E-2,9.834000587E0
3.791480983E0,-1.060500070E-1,7.905000448E-2,9.838950157E0
3.793981367E0,-1.039500013E-1,8.100000024E-2,9.835950851E0
3.796481904E0,-1.200000048E-1,6.900000572E-2,9.868050575E0
3.798982514E0,-1.230000034E-1,6.705000252E-2,9.865050316E0
3.801482901E0,-1.110000089E-1,6.495000422E-2,9.859950066E0
3.803983437E0,-8.700000495E-2,4.995000362E-2,9.853050232E0
3.806484053E0,-8.400000632E-2,3.299999982E-2,9.841050148E0
3.808984444E0,-7.005000114E-2,1.905000024E-2,9.841050148E0
3.811484981E0,-7.005000114E-2,1.695000008E-2,9.832050323E0
3.813985596E0,-5.595000088E-2,2.400000021E-2,9.859950066E0
3.816485906E0,-6.795000285E-2,-9.000000544E-3,9.847950935E0
3.818986548E0,-6.000000238E-2,-2.100000158E-2,9.844050407E0
3.821486935E0,-4.905000329E-2,-2.505000122E-2,9.838950157E0
3.823987548E0,-6.000000238E-2,-2.805000171E-2,9.834000587E0
3.826488089E0,-3.195000067E-2,-3.299999982E-2,9.834000587E0
3.828988482E0,-2.700000070E-2,-3.000000119E-2,9.858000755E0
3.831489019E0,-3.705000132E-2,-2.295000106E-2,9.850950241E0
3.833989634E0,-2.505000122E-2,-1.095000096E-2,9.850950241E0
3.836490021E0,-2.895000204E-2,-1.050000079E-3,9.862950325E0
3.838990562E0,-4.095000029E-2,1.200000010E-2,9.847950935E0
3.841491178E0,-3.705000132E-2,2.595000155E-2,9.859950066E0
3.843991564E0,-4.395000264E-2,3.299999982E-2,9.826950073E0
3.846492101E0,-3.705000132E-2,4.995000362E-2,9.841050148E0
3.848992716E0,-6.000000238E-2,6.195000187E-2,9.834000587E0
3.851493089E0,-5.595000088E-2,7.395000011E-2,9.856050491E0
3.853993625E0,-5.805000290E-2,6.705000252E-2,9.856050491E0
3.856494241E0,-5.100000277E-2,6.900000572E-2,9.841050148E0
3.858994627E0,-4.605000094E-2,6.900000572E-2,9.844050407E0
3.861495136E0,-2.505000122E-2,4.995000362E-2,9.841050148E0
3.863995522E0,-4.395000264E-2,4.500000179E-2,9.862950325E0
3.866496136E0,-1.695000008E-2,4.800000042E-2,9.865050316E0
3.868996676E0,-1.695000008E-2,4.500000179E-2,9.865050316E0
3.871497089E0,-1.695000008E-2,4.305000231E-2,9.850950241E0
3.873997702E0,-7.950000465E-3,1.695000008E-2,9.846000671E0
3.876498243E0,-1.005000062E-2,0.000000000E0,9.844050407E0
3.878998627E0,6.000000052E-3,1.950000064E-3,9.853050232E0
3.881499241E0,6.000000052E-3,4.950000439E-3,9.844050407E0
3.883999771E0,1.500000060E-2,-9.000000544E-3,9.853050232E0
3.886500156E0,1.050000079E-3,-2.295000106E-2,9.856050491E0
3.889000769E0,3.195000067E-2,-1.095000096E-2,9.868050575E0
3.891501079E0,3.405000269E-2,-1.305000018E-2,9.862950325E0
3.894001706E0,3.705000132E-2,-2.295000106E-2,9.841050148E0
3.896502245E0,3.900000080E-2,-2.805000171E-2,9.858000755E0
3.899002860E0,4.905000329E-2,-2.805000171E-2,9.853050232E0
3.901503247E0,4.395000264E-2,-1.800000109E-2,9.853050232E0
3.904003774E0,4.395000264E-2,-1.305000018E-2,9.850950241E0
3.906504161E0,4.095000029E-2,-9.000000544E-3,9.859950066E0
3.909004774E0,3.405000269E-2,1.950000064E-3,9.859950066E0
3.911505315E0,3.405000269E-2,0.000000000E0,9.841050148E0
3.914005708E0,5.100000277E-2,-4.050000105E-3,9.841050148E0
3.916506322E0,5.595000088E-2,1.395000052E-2,9.844050407E0
3.919006862E0,5.805000290E-2,2.400000021E-2,9.850950241E0
3.921507247E0,6.300000101E-2,5.505000427E-2,9.862950325E0
3.924007851E0,6.105000153E-2,4.995000362E-2,9.870000839E0
3.926508392E0,5.595000088E-2,6.195000187E-2,9.859950066E0
3.929009005E0,5.295000225E-2,6.195000187E-2,9.850950241E0
3.931509315E0,5.805000290E-2,6.705000252E-2,9.853050232E0
3.934009942E0,2.205000073E-2,6.495000422E-2,9.859950066E0
3.936510329E0,1.500000060E-2,6.705000252E-2,9.847950935E0
3.939010865E0,3.000000026E-3,4.995000362E-2,9.870000839E0
3.941511481E0,-2.895000204E-2,3.600000218E-2,9.850950241E0
3.944011882E0,-4.605000094E-2,0.000000000E0,9.858000755E0
3.946512419E0,-6.795000285E-2,1.950000064E-3,9.846000671E0
3.949013034E0,-8.895000070E-2,0.000000000E0,9.832050323E0
3.951513421E0,-9.600000083E-2,-9.000000544E-3,9.834000587E0
3.954013952E0,-1.159500033E-1,-1.050000079E-3,9.850950241E0
3.956514567E0,-1.129500046E-1,-1.095000096E-2,9.841050148E0
3.959014954E0,-1.560000032E-1,-3.000000119E-2,9.844050407E0
3.961515491E0,-1.510500014E-1,-3.000000119E-2,9.844050407E0
3.964015877E0,-1.489500105E-1,-4.200000316E-2,9.853050232E0
3.966516491E0,-1.489500105E-1,-5.895000324E-2,9.838950157E0
3.969017031E0,-1.350000054E-1,-2.100000158E-2,9.838950157E0
3.971517416E0,-1.230000034E-1,-4.005000368E-2,9.844050407E0
3.974017937E0,-1.110000089E-1,-4.200000316E-2,9.841050148E0
3.976518553E0,-1.009500027E-1,-5.205000192E-2,9.834000587E0
3.979018939E0,-9.600000083E-2,-3.000000119E-2,9.841050148E0
3.981519553E0,-8.400000632E-2,-3.000000119E-2,9.847950935E0
3.984019862E0,-7.995000482E-2,-2.295000106E-2,9.847950935E0
3.986520458E0,-6.495000422E-2,-1.605000161E-2,9.868050575E0
3.989020996E0,-5.805000290E-2,-6.000000052E-3,9.846000671E0
3.991521611E0,-3.705000132E-2,-4.050000105E-3,9.850950241E0
3.994021998E0,-4.095000029E-2,1.200000010E-2,9.835950851E0
3.996522602E0,-2.895000204E-2,7.050000131E-3,9.856050491E0
3.999022911E0,1.050000079E-3,-9.000000544E-3,9.859950066E0
4.001523525E0,1.500000060E-2,-1.050000079E-3,9.856050491E0
4.004024063E0,2.205000073E-2,1.950000064E-3,9.856050491E0
4.006524455E0,3.405000269E-2,1.695000008E-2,9.859950066E0
4.009025068E0,1.995000057E-2,1.005000062E-2,9.850950241E0
4.011525609E0,4.095000029E-2,1.695000008E-2,9.850950241E0
4.014025993E0,1.500000060E-2,0.000000000E0,9.858000755E0
4.016526621E0,1.995000057E-2,2.595000155E-2,9.847950935E0
4.019027161E0,6.000000052E-3,2.400000021E-2,9.846000671E0
4.021527546E0,1.050000079E-3,2.895000204E-2,9.850950241E0
4.024028082E0,-4.395000264E-2,2.895000204E-2,9.858000755E0
4.026528707E0,-5.295000225E-2,1.395000052E-2,9.844050407E0
4.029029094E0,-7.200000435E-2,2.895000204E-2,9.850950241E0
4.031529631E0,-7.200000435E-2,3.795000166E-2,9.832050323E0
4.034030246E0,-1.039500013E-1,5.295000225E-2,9.841050148E0
4.036530628E0,-8.895000070E-2,6.705000252E-2,9.844050407E0
4.039031164E0,-9.405000508E-2,5.505000427E-2,9.871950150E0
4.041531779E0,-1.110000089E-1,1.905000024E-2,9.847950935E0
4.044032166E0,-1.369500011E-1,3.795000166E-2,9.859950066E0
4.046532703E0,-1.540500075E-1,3.795000166E-2,9.841050148E0
4.049033318E0,-1.440000087E-1,1.695000008E-2,9.817050934E0
4.051533705E0,-1.440000087E-1,1.905000024E-2,9.846000671E0
4.054034241E0,-1.350000054E-1,1.695000008E-2,9.850950241E0
4.056534628E0,-1.300500035E-1,-9.000000544E-3,9.847950935E0
4.059035251E0,-1.279500127E-1,1.695000008E-2,9.835950851E0
4.061535792E0,-1.129500046E-1,4.950000439E-3,9.859950066E0
4.064036176E0,-9.600000083E-2,1.950000064E-3,9.850950241E0
4.066536713E0,-8.400000632E-2,1.005000062E-2,9.841050148E0
4.069037328E0,-7.005000114E-2,3.105000220E-2,9.834000587E0
4.071537724E0,-6.495000422E-2,1.905000024E-2,9.850950241E0
4.074038260E0,-3.705000132E-2,1.695000008E-2,9.865050316E0
4.076538875E0,-3.195000067E-2,2.205000073E-2,9.859950066E0
4.079039262E0,-3.195000067E-2,3.795000166E-2,9.853050232E0
4.081539875E0,-1.500000060E-2,2.400000021E-2,9.862950325E0
4.084040171E0,-1.995000057E-2,6.000000238E-2,9.847950935E0
4.086540785E0,1.995000057E-2,5.505000427E-2,9.841050148E0
4.089041323E0,3.705000132E-2,6.195000187E-2,9.846000671E0
4.091541720E0,6.105000153E-2,6.900000572E-2,9.870000839E0
4.094042333E0,6.795000285E-2,4.995000362E-2,9.853050232E0
4.096542874E0,6.300000101E-2,4.305000231E-2,9.865050316E0
4.099043258E0,8.700000495E-2,3.795000166E-2,9.853050232E0
4.101543852E0,1.060500070E-1,3.795000166E-2,9.853050232E0
4.104044392E0,1.090500057E-1,3.795000166E-2,9.847950935E0
4.106544777E0,1.249500066E-1,3.299999982E-2,9.847950935E0
4.109045390E0,1.249500066E-1,3.105000220E-2,9.850950241E0
4.111545930E0,1.230000034E-1,7.050000131E-3,9.858000755E0
4.114046310E0,1.039500013E-1,2.400000021E-2,9.862950325E0
4.116546923E0,8.505000174E-2,1.395000052E-2,9.865050316E0
4.119047464E0,6.795000285E-2,2.595000155E-2,9.858000755E0
4.121547849E0,5.595000088E-2,3.105000220E-2,9.847950935E0
4.124048462E0,2.700000070E-2,1.905000024E-2,9.826950073E0
4.126548772E0,-1.050000079E-3,1.200000010E-2,9.829050064E0
4.129049385E0,-1.305000018E-2,3.795000166E-2,9.853050232E0
4.131549924E0,-5.805000290E-2,1.950000064E-3,9.858000755E0
4.134050554E0,-9.195000678E-2,-9.000000544E-3,9.838950157E0
4.136550941E0,-1.489500105E-1,-1.605000161E-2,9.841050148E0
4.139051477E0,-1.990500093E-1,-2.505000122E-2,9.813000679E0
4.141551864E0,-2.209500074E-1,-1.800000109E-2,9.832050323E0
4.144052506E0,-2.470500171E-1,-9.000000544E-3,9.832050323E0
4.146553046E0,-2.760000229E-1,1.005000062E-2,9.829050064E0
4.149053431E0,-2.779500186E-1,-1.095000096E-2,9.847950935E0
4.151553968E0,-2.689500153E-1,-9.000000544E-3,9.835950851E0
4.154054612E0,-2.880000174E-1,-1.800000109E-2,9.829050064E0
4.156554999E0,-2.689500153E-1,-4.500000179E-2,9.835950851E0
4.159055612E0,-2.710500062E-1,-5.205000192E-2,9.834000587E0
4.161556152E0,-2.639999986E-1,-4.695000127E-2,9.817050934E0
4.164056766E0,-2.590500116E-1,-4.695000127E-2,9.829050064E0
4.166557076E0,-2.639999986E-1,-4.695000127E-2,9.850950241E0
4.169057689E0,-2.299500108E-1,-5.700000376E-2,9.853050232E0
4.171558076E0,-2.209500074E-1,-4.005000368E-2,9.858000755E0
4.174058673E0,-1.900500059E-1,-4.905000329E-2,9.841050148E0
4.176559213E0,-1.560000032E-1,-2.295000106E-2,9.835950851E0
4.179059598E0,-1.540500075E-1,-1.800000109E-2,9.838950157E0
4.181560134E0,-1.369500011E-1,-6.000000052E-3,9.835950851E0
4.184060731E0,-1.279500127E-1,1.005000062E-2,9.856050491E0
4.186561117E0,-9.405000508E-2,0.000000000E0,9.865050316E0
4.189061654E0,-7.005000114E-2,2.400000021E-2,9.856050491E0
4.191562041E0,-5.295000225E-2,2.895000204E-2,9.846000671E0
4.194062654E0,-3.405000269E-2,1.905000024E-2,9.853050232E0
4.196563179E0,-1.005000062E-2,3.795000166E-2,9.841050148E0
4.199063564E0,6.000000052E-3,3.105000220E-2,9.847950935E0
4.201564177E0,2.205000073E-2,3.600000218E-2,9.850950241E0
4.204064487E0,3.195000067E-2,4.500000179E-2,9.858000755E0
4.206565092E0,3.705000132E-2,3.299999982E-2,9.859950066E0
4.209065630E0,2.700000070E-2,4.095000029E-2,9.846000671E0
4.211566245E0,5.295000225E-2,3.299999982E-2,9.850950241E0
4.214066632E0,6.495000422E-2,4.095000029E-2,9.838950157E0
4.216567254E0,4.605000094E-2,4.095000029E-2,9.835950851E0
4.219067564E0,3.000000119E-2,3.795000166E-2,9.865050316E0
4.221568178E0,4.605000094E-2,5.295000225E-2,9.859950066E0
4.224068716E0,4.605000094E-2,3.795000166E-2,9.859950066E0
4.226569307E0,4.095000029E-2,3.105000220E-2,9.850950241E0
4.229069694E0,3.405000269E-2,5.700000376E-2,9.865050316E0
4.231570230E0,4.605000094E-2,5.295000225E-2,9.871950150E0
4.234070617E0,3.705000132E-2,3.600000218E-2,9.862950325E0
4.236571221E0,3.705000132E-2,3.600000218E-2,9.874950409E0
4.239071762E0,2.505000122E-2,3.795000166E-2,9.862950325E0
4.241572375E0,4.095000029E-2,3.600000218E-2,9.868050575E0
4.244072685E0,4.395000264E-2,2.895000204E-2,9.868050575E0
4.246573288E0,2.700000070E-2,3.299999982E-2,9.862950325E0
4.249073675E0,4.395000264E-2,3.795000166E-2,9.859950066E0
4.251574211E0,3.705000132E-2,3.299999982E-2,9.846000671E0
4.254074827E0,3.000000026E-3,3.600000218E-2,9.862950325E0
4.256575214E0,-1.050000079E-3,4.095000029E-2,9.850950241E0
4.259075745E0,-3.195000067E-2,3.795000166E-2,9.844050407E0
4.261576360E0,-4.905000329E-2,4.095000029E-2,9.835950851E0
4.264076747E0,-6.495000422E-2,5.505000427E-2,9.834000587E0
4.266577283E0,-7.995000482E-2,4.800000042E-2,9.844050407E0
4.269077923E0,-8.205000311E-2,4.095000029E-2,9.847950935E0
4.271578309E0,-9.600000083E-2,1.695000008E-2,9.850950241E0
4.274078846E0,-1.369500011E-1,-4.050000105E-3,9.844050407E0
4.276579233E0,-1.180500090E-1,-9.000000544E-3,9.858000755E0
4.279079846E0,-1.159500033E-1,-4.695000127E-2,9.853050232E0
4.281580386E0,-1.180500090E-1,-6.405000389E-2,9.841050148E0
4.284080771E0,-9.405000508E-2,-9.000000358E-2,9.846000671E0
4.286581384E0,-1.009500027E-1,-8.295000345E-2,9.846000671E0
4.289081930E0,-7.695000619E-2,-7.605000585E-2,9.846000671E0
4.291582315E0,-6.795000285E-2,-8.805000782E-2,9.858000755E0
4.294082928E0,-5.100000277E-2,-5.400000140E-2,9.856050491E0
4.296583468E0,-4.605000094E-2,-6.405000389E-2,9.835950851E0
4.299083848E0,-5.100000277E-2,-5.400000140E-2,9.835950851E0
4.301584384E0,-3.405000269E-2,-4.200000316E-2,9.862950325E0
4.304085000E0,-1.005000062E-2,-3.000000119E-2,9.858000755E0
4.306585386E0,-1.995000057E-2,-2.505000122E-2,9.853050232E0
4.309085971E0,-1.695000008E-2,-1.095000096E-2,9.853050232E0
4.311586511E0,-1.500000060E-2,7.050000131E-3,9.847950935E0
4.314086896E0,-1.050000079E-3,2.895000204E-2,9.853050232E0
4.316587509E0,-2.505000122E-2,2.595000155E-2,9.850950241E0
4.319087819E0,-1.695000008E-2,2.595000155E-2,9.846000671E0
4.321588418E0,-4.950000439E-3,6.195000187E-2,9.844050407E0
4.324088957E0,-1.050000079E-3,5.505000427E-2,9.859950066E0
4.326589344E0,-3.000000026E-3,6.705000252E-2,9.858000755E0
4.329089957E0,-1.050000079E-3,8.895000070E-2,9.856050491E0
4.331590497E0,7.950000465E-3,8.595000207E-2,9.846000671E0
4.334090882E0,2.205000073E-2,7.395000011E-2,9.856050491E0
4.336591495E0,3.705000132E-2,7.695000619E-2,9.844050407E0
4.339092036E0,4.395000264E-2,6.495000422E-2,9.858000755E0
4.341592420E0,4.395000264E-2,7.695000619E-2,9.856050491E0
4.344092961E0,3.900000080E-2,6.495000422E-2,9.862950325E0
4.346593576E0,5.295000225E-2,7.905000448E-2,9.859950066E0
4.349093963E0,4.095000029E-2,6.495000422E-2,9.835950851E0
4.351594499E0,4.095000029E-2,6.900000572E-2,9.846000671E0
4.354095130E0,2.700000070E-2,4.305000231E-2,9.856050491E0
4.356595516E0,1.305000018E-2,4.800000042E-2,9.853050232E0
4.359096053E0,1.005000062E-2,3.299999982E-2,9.859950066E0
4.361596668E0,1.050000079E-3,1.005000062E-2,9.858000755E0
4.364097089E0,-1.695000008E-2,3.105000220E-2,9.858000755E0
4.366597625E0,-7.950000465E-3,1.695000008E-2,9.844050407E0
4.369098241E0,-4.095000029E-2,4.950000439E-3,9.838950157E0
4.371598627E0,-5.595000088E-2,7.050000131E-3,9.850950241E0
4.374099173E0,-7.200000435E-2,2.595000155E-2,9.850950241E0
4.376599559E0,-4.605000094E-2,6.900000572E-2,9.846000671E0
4.379100173E0,-9.900000691E-2,4.095000029E-2,9.865050316E0
4.381600713E0,-1.159500033E-1,2.400000021E-2,9.844050407E0
4.384101098E0,-1.300500035E-1,4.950000439E-3,9.853050232E0
4.386601634E0,-1.300500035E-1,0.000000000E0,9.841050148E0
4.389102250E0,-1.390500069E-1,-4.050000105E-3,9.847950935E0
4.391602636E0,-1.540500075E-1,1.950000064E-3,9.829050064E0
4.394103250E0,-1.609500051E-1,1.695000008E-2,9.838950157E0
4.396603829E0,-1.279500127E-1,3.600000218E-2,9.841050148E0
4.399104214E0,-1.630500108E-1,1.395000052E-2,9.865050316E0
4.401604750E0,-1.590000093E-1,6.195000187E-2,9.853050232E0
4.404105366E0,-1.420500129E-1,4.800000042E-2,9.829050064E0
4.406605761E0,-1.489500105E-1,4.305000231E-2,9.817050934E0
4.409106375E0,-1.369500011E-1,3.600000218E-2,9.822000504E0
4.411606684E0,-1.350000054E-1,2.400000021E-2,9.829050064E0
4.414107298E0,-1.249500066E-1,7.050000131E-3,9.847950935E0
4.416607860E0,-1.369500011E-1,-1.050000079E-3,9.835950851E0
4.419108247E0,-1.080000028E-1,-4.050000105E-3,9.853050232E0
4.421608860E0,-8.205000311E-2,1.950000064E-3,9.858000755E0
4.424109401E0,-9.405000508E-2,-2.100000158E-2,9.832050323E0
4.426609790E0,-9.600000083E-2,-3.000000119E-2,9.856050491E0
4.429110404E0,-9.195000678E-2,-4.050000105E-3,9.838950157E0
4.431610944E0,-1.060500070E-1,1.005000062E-2,9.868050575E0
4.434111286E0,-1.060500070E-1,-4.050000105E-3,9.858000755E0
4.436611899E0,-8.205000311E-2,2.205000073E-2,9.847950935E0
4.439112440E0,-7.200000435E-2,1.905000024E-2,9.850950241E0
4.441612824E0,-6.000000238E-2,3.600000218E-2,9.853050232E0
4.444113361E0,-7.995000482E-2,4.095000029E-2,9.841050148E0
4.446613961E0,-4.605000094E-2,6.195000187E-2,9.853050232E0
4.449114348E0,-4.905000329E-2,5.700000376E-2,9.838950157E0
4.451614884E0,-2.505000122E-2,6.900000572E-2,9.853050232E0
4.454115271E0,-1.695000008E-2,4.995000362E-2,9.853050232E0
4.456615875E0,-1.995000057E-2,4.995000362E-2,9.844050407E0
4.459116416E0,1.050000079E-3,5.505000427E-2,9.844050407E0
4.461617029E0,-3.000000026E-3,2.400000021E-2,9.841050148E0
4.464117339E0,1.005000062E-2,2.400000021E-2,9.856050491E0
4.466617952E0,2.505000122E-2,3.795000166E-2,9.841050148E0
4.469118568E0,1.800000109E-2,4.095000029E-2,9.868050575E0
4.471618954E0,3.195000067E-2,3.105000220E-2,9.865050316E0
4.474119491E0,3.900000080E-2,5.295000225E-2,9.858000755E0
4.476620110E0,5.100000277E-2,5.700000376E-2,9.858000755E0
4.479120420E0,4.095000029E-2,7.395000011E-2,9.856050491E0
4.481621033E0,4.605000094E-2,7.695000619E-2,9.868050575E0
4.484121420E0,4.395000264E-2,9.105000645E-2,9.865050316E0
4.486622033E0,4.605000094E-2,1.080000028E-1,9.858000755E0
4.489122560E0,1.995000057E-2,1.120500043E-1,9.877050400E0
4.491622944E0,3.405000269E-2,1.200000048E-1,9.847950935E0
4.494123481E0,3.195000067E-2,1.240500063E-1,9.835950851E0
4.496623867E0,1.005000062E-2,1.240500063E-1,9.838950157E0
4.499124486E0,1.500000060E-2,1.339500099E-1,9.856050491E0
4.501625026E0,-3.000000026E-3,1.170000061E-1,9.856050491E0
4.504125411E0,-4.950000439E-3,8.895000070E-2,9.859950066E0
4.506626024E0,-1.005000062E-2,8.100000024E-2,9.853050232E0
4.509126569E0,-7.950000465E-3,7.395000011E-2,9.844050407E0
4.511626953E0,-3.195000067E-2,7.695000619E-2,9.853050232E0
4.514127567E0,-2.895000204E-2,7.395000011E-2,9.856050491E0
4.516628107E0,-4.095000029E-2,4.305000231E-2,9.844050407E0
4.519128468E0,-4.905000329E-2,3.299999982E-2,9.847950935E0
4.521629081E0,-7.200000435E-2,4.305000231E-2,9.841050148E0
4.524129622E0,-7.995000482E-2,4.305000231E-2,9.847950935E0
4.526630006E0,-8.700000495E-2,1.695000008E-2,9.841050148E0
4.529130602E0,-7.995000482E-2,-1.050000079E-3,9.834000587E0
4.531631142E0,-1.039500013E-1,-1.305000018E-2,9.829050064E0
4.534131527E0,-8.700000495E-2,-1.095000096E-2,9.853050232E0
4.536632063E0,-9.405000508E-2,-9.000000544E-3,9.858000755E0
4.539132679E0,-8.400000632E-2,4.950000439E-3,9.835950851E0
4.541633041E0,-8.400000632E-2,-1.605000161E-2,9.858000755E0
4.544133578E0,-7.200000435E-2,-3.495000303E-2,9.847950935E0
4.546634193E0,-5.595000088E-2,-5.700000376E-2,9.844050407E0
4.549134580E0,-7.500000298E-2,-2.805000171E-2,9.858000755E0
4.551635121E0,-7.695000619E-2,-4.905000329E-2,9.835950851E0
4.554135508E0,-8.700000495E-2,-4.695000127E-2,9.853050232E0
4.556636121E0,-7.995000482E-2,-2.295000106E-2,9.862950325E0
4.559136662E0,-8.895000070E-2,-9.000000544E-3,9.847950935E0
4.561637251E0,-1.180500090E-1,-3.000000119E-2,9.844050407E0
4.564137561E0,-1.129500046E-1,-1.095000096E-2,9.847950935E0
4.566638174E0,-1.080000028E-1,-6.000000052E-3,9.838950157E0
4.569138561E0,-1.390500069E-1,-6.000000052E-3,9.832050323E0
4.571639106E0,-1.440000087E-1,-1.305000018E-2,9.853050232E0
4.574139722E0,-1.729500145E-1,0.000000000E0,9.844050407E0
4.576640108E0,-1.560000032E-1,-6.000000052E-3,9.826950073E0
4.579140645E0,-1.560000032E-1,0.000000000E0,9.844050407E0
4.581641251E0,-1.489500105E-1,0.000000000E0,9.844050407E0
4.584141638E0,-1.750500053E-1,-1.605000161E-2,9.832050323E0
4.586642174E0,-1.969500035E-1,-3.495000303E-2,9.832050323E0
4.589142790E0,-1.729500145E-1,-9.000000544E-3,9.838950157E0
4.591643161E0,-1.830000132E-1,-1.800000109E-2,9.847950935E0
4.594143698E0,-1.680000126E-1,-4.050000105E-3,9.844050407E0
4.596644084E0,-1.900500059E-1,4.950000439E-3,9.841050148E0
4.599144698E0,-2.020500153E-1,1.695000008E-2,9.844050407E0
4.601645238E0,-1.800000072E-1,1.005000062E-2,9.826950073E0
4.604145662E0,-2.070000172E-1,2.400000021E-2,9.834000587E0
4.606646275E0,-2.020500153E-1,3.105000220E-2,9.844050407E0
4.609146816E0,-2.040000111E-1,2.595000155E-2,9.834000587E0
4.611647200E0,-2.110500038E-1,2.400000021E-2,9.832050323E0
4.614147828E0,-2.040000111E-1,7.050000131E-3,9.838950157E0
4.616648137E0,-1.780500114E-1,1.905000024E-2,9.856050491E0
4.619148751E0,-1.590000093E-1,1.950000064E-3,9.832050323E0
4.621649289E0,-1.489500105E-1,-1.095000096E-2,9.846000671E0
4.624149905E0,-1.390500069E-1,-1.605000161E-2,9.835950851E0
4.626650296E0,-1.230000034E-1,-2.505000122E-2,9.846000671E0
4.629150910E0,-8.205000311E-2,-3.299999982E-2,9.835950851E0
4.631651219E0,-4.905000329E-2,-4.500000179E-2,9.850950241E0
4.634151833E0,-3.900000080E-2,-6.599999964E-2,9.859950066E0
4.636652356E0,-3.900000080E-2,-7.304999977E-2,9.859950066E0
4.639152972E0,-2.505000122E-2,-7.605000585E-2,9.844050407E0
4.641653358E0,-2.700000070E-2,-6.795000285E-2,9.841050148E0
4.644153895E0,-1.995000057E-2,-7.605000585E-2,9.856050491E0
4.646654281E0,-2.205000073E-2,-5.700000376E-2,9.856050491E0
4.649154895E0,-3.705000132E-2,-6.795000285E-2,9.847950935E0
4.651655435E0,-2.505000122E-2,-6.105000153E-2,9.838950157E0
4.654155820E0,-1.695000008E-2,-4.200000316E-2,9.835950851E0
4.656656356E0,-4.395000264E-2,-2.100000158E-2,9.850950241E0
4.659156992E0,-6.795000285E-2,4.950000439E-3,9.847950935E0
4.661657378E0,-7.200000435E-2,-1.305000018E-2,9.841050148E0
4.664157915E0,-7.500000298E-2,0.000000000E0,9.853050232E0
4.666658530E0,-8.400000632E-2,-2.295000106E-2,9.847950935E0
4.669158926E0,-7.995000482E-2,-1.050000079E-3,9.853050232E0
4.671659462E0,-7.005000114E-2,-4.050000105E-3,9.865050316E0
4.674160078E0,-7.005000114E-2,-1.050000079E-3,9.846000671E0
4.676660458E0,-6.300000101E-2,0.000000000E0,9.847950935E0
4.679160995E0,-5.100000277E-2,0.000000000E0,9.846000671E0
4.681661610E0,-5.805000290E-2,-1.050000079E-3,9.847950935E0
4.684161920E0,-6.300000101E-2,-1.095000096E-2,9.856050491E0
4.686662533E0,-4.395000264E-2,1.950000064E-3,9.850950241E0
4.689162935E0,-4.395000264E-2,-1.305000018E-2,9.853050232E0
4.691663548E0,-2.505000122E-2,0.000000000E0,9.846000671E0
4.694164089E0,-1.500000060E-2,-4.050000105E-3,9.853050232E0
4.696664473E0,-1.695000008E-2,-1.305000018E-2,9.847950935E0
4.699165010E0,6.000000052E-3,-2.295000106E-2,9.856050491E0
4.701665625E0,3.000000026E-3,-3.705000132E-2,9.856050491E0
4.704166012E0,3.000000119E-2,-5.400000140E-2,9.844050407E0
4.706666625E0,3.195000067E-2,-5.205000192E-2,9.838950157E0
4.709167180E0,3.705000132E-2,-4.500000179E-2,9.846000671E0
4.711667564E0,3.195000067E-2,-6.795000285E-2,9.862950325E0
4.714168101E0,5.100000277E-2,-6.405000389E-2,9.868050575E0
4.716668716E0,3.900000080E-2,-4.200000316E-2,9.871950150E0
4.719169098E0,5.595000088E-2,-1.095000096E-2,9.858000755E0
4.721669711E0,4.095000029E-2,-1.605000161E-2,9.858000755E0
4.724170021E0,2.205000073E-2,-6.000000052E-3,9.853050232E0
4.726670634E0,1.995000057E-2,1.395000052E-2,9.858000755E0
4.729171168E0,-4.950000439E-3,3.105000220E-2,9.856050491E0
4.731671554E0,1.050000079E-3,4.995000362E-2,9.853050232E0
4.734172168E0,-2.700000070E-2,6.705000252E-2,9.853050232E0
4.736672708E0,-2.205000073E-2,7.695000619E-2,9.850950241E0
4.739173093E0,-3.195000067E-2,5.700000376E-2,9.850950241E0
4.741673697E0,-5.595000088E-2,6.705000252E-2,9.841050148E0
4.744174238E0,-4.395000264E-2,5.295000225E-2,9.850950241E0
4.746674622E0,-5.295000225E-2,6.195000187E-2,9.838950157E0
4.749175159E0,-4.395000264E-2,4.500000179E-2,9.847950935E0
4.751675779E0,-5.595000088E-2,5.295000225E-2,9.841050148E0
4.754176166E0,-4.605000094E-2,1.695000008E-2,9.846000671E0
4.756676702E0,-3.405000269E-2,1.695000008E-2,9.847950935E0
4.759177318E0,-1.500000060E-2,2.895000204E-2,9.856050491E0
4.761677704E0,-2.895000204E-2,1.395000052E-2,9.856050491E0
4.764178260E0,-1.050000079E-3,1.695000008E-2,9.859950066E0
4.766678875E0,-1.500000060E-2,5.295000225E-2,9.856050491E0
4.769179262E0,-1.500000060E-2,2.595000155E-2,9.862950325E0
4.771679798E0,-2.505000122E-2,1.905000024E-2,9.853050232E0
4.774180423E0,-4.095000029E-2,3.299999982E-2,9.853050232E0
4.776680732E0,-5.595000088E-2,4.500000179E-2,9.844050407E0
4.779181346E0,-5.805000290E-2,1.005000062E-2,9.846000671E0
4.781681732E0,-7.695000619E-2,3.600000218E-2,9.838950157E0
4.784182346E0,-1.080000028E-1,2.400000021E-2,9.841050148E0
4.786682886E0,-1.060500070E-1,7.050000131E-3,9.829050064E0
4.789183271E0,-1.080000028E-1,1.905000024E-2,9.838950157E0
4.791683884E0,-1.390500069E-1,1.695000008E-2,9.841050148E0
4.794184425E0,-1.279500127E-1,1.905000024E-2,9.835950851E0
4.796684800E0,-1.350000054E-1,1.695000008E-2,9.847950935E0
4.799185337E0,-1.369500011E-1,-4.050000105E-3,9.841050148E0
4.801685952E0,-1.080000028E-1,4.950000439E-3,9.858000755E0
4.804186339E0,-1.060500070E-1,1.695000008E-2,9.832050323E0
4.806686879E0,-8.895000070E-2,1.905000024E-2,9.841050148E0
4.809187266E0,-9.405000508E-2,1.950000064E-3,9.844050407E0
4.811687879E0,-6.300000101E-2,-1.050000079E-3,9.838950157E0
4.814188420E0,-5.100000277E-2,-1.605000161E-2,9.846000671E0
4.816688828E0,-2.895000204E-2,-4.050000105E-3,9.846000671E0
4.819189442E0,-3.195000067E-2,2.400000021E-2,9.844050407E0
4.821689982E0,-2.895000204E-2,2.595000155E-2,9.858000755E0
4.824190367E0,-1.305000018E-2,3.600000218E-2,9.846000671E0
4.826690980E0,-4.950000439E-3,4.500000179E-2,9.834000587E0
4.829191507E0,-7.950000465E-3,5.505000427E-2,9.847950935E0
4.831691891E0,-1.305000018E-2,4.500000179E-2,9.846000671E0
4.834192505E0,3.000000026E-3,6.195000187E-2,9.859950066E0
4.836693045E0,-7.950000465E-3,6.495000422E-2,9.856050491E0
4.839193430E0,7.950000465E-3,4.995000362E-2,9.858000755E0
4.841693966E0,6.000000052E-3,5.295000225E-2,9.865050316E0
4.844194582E0,2.205000073E-2,4.500000179E-2,9.846000671E0
4.846694968E0,1.800000109E-2,5.505000427E-2,9.856050491E0
4.849195515E0,1.305000018E-2,4.995000362E-2,9.850950241E0
4.851695901E0,2.700000070E-2,4.305000231E-2,9.841050148E0
4.854196515E0,-1.050000079E-3,4.500000179E-2,9.856050491E0
4.856697055E0,-1.005000062E-2,4.305000231E-2,9.853050232E0
4.859197669E0,-2.505000122E-2,4.800000042E-2,9.834000587E0
4.861698065E0,-1.695000008E-2,4.305000231E-2,9.838950157E0
4.864198602E0,-2.505000122E-2,4.305000231E-2,9.859950066E0
4.866698988E0,-3.705000132E-2,1.905000024E-2,9.844050407E0
4.869199602E0,-7.995000482E-2,1.695000008E-2,9.856050491E0
4.871700142E0,-8.400000632E-2,2.595000155E-2,9.850950241E0
4.874200756E0,-7.200000435E-2,-1.050000079E-3,9.862950325E0
4.876701065E0,-7.695000619E-2,1.950000064E-3,9.853050232E0
4.879201679E0,-8.205000311E-2,-4.050000105E-3,9.846000671E0
4.881702065E0,-9.405000508E-2,-1.800000109E-2,9.850950241E0
4.884202679E0,-9.195000678E-2,-2.295000106E-2,9.841050148E0
4.886703219E0,-8.400000632E-2,-2.295000106E-2,9.841050148E0
4.889203604E0,-7.695000619E-2,-2.505000122E-2,9.858000755E0
4.891704140E0,-6.300000101E-2,-2.805000171E-2,9.862950325E0
4.894204756E0,-7.500000298E-2,-3.000000119E-2,9.853050232E0
4.896705142E0,-6.000000238E-2,-5.205000192E-2,9.853050232E0
4.899205679E0,-3.900000080E-2,-5.205000192E-2,9.838950157E0
4.901706065E0,-1.995000057E-2,-3.705000132E-2,9.847950935E0
4.904206697E0,-1.995000057E-2,-5.895000324E-2,9.856050491E0
4.906707237E0,-4.395000264E-2,-3.000000119E-2,9.853050232E0
4.909207622E0,-3.195000067E-2,-1.800000109E-2,9.865050316E0
4.911708235E0,-7.950000465E-3,0.000000000E0,9.862950325E0
4.914208776E0,1.050000079E-3,1.005000062E-2,9.850950241E0
4.916709160E0,-1.305000018E-2,7.050000131E-3,9.859950066E0
4.919209774E0,-2.895000204E-2,2.205000073E-2,9.853050232E0
4.921710314E0,-7.950000465E-3,2.400000021E-2,9.841050148E0
4.924210699E0,-1.695000008E-2,1.395000052E-2,9.862950325E0
4.926711294E0,-1.500000060E-2,7.050000131E-3,9.862950325E0
4.929211604E0,-2.895000204E-2,0.000000000E0,9.859950066E0
4.931712217E0,-2.895000204E-2,1.395000052E-2,9.850950241E0
4.934212756E0,-4.395000264E-2,1.005000062E-2,9.834000587E0
4.936713357E0,-5.100000277E-2,1.200000010E-2,9.841050148E0
4.939213744E0,-5.100000277E-2,2.895000204E-2,9.850950241E0
4.941714280E0,-4.905000329E-2,4.800000042E-2,9.846000671E0
4.944214896E0,-4.905000329E-2,5.505000427E-2,9.862950325E0
4.946715282E0,-4.905000329E-2,6.495000422E-2,9.856050491E0
4.949215785E0,-6.795000285E-2,4.995000362E-2,9.853050232E0
4.951716400E0,-6.000000238E-2,4.500000179E-2,9.853050232E0
4.954216710E0,-5.100000277E-2,5.505000427E-2,9.844050407E0
4.956717323E0,-7.005000114E-2,4.995000362E-2,9.844050407E0
4.959217705E0,-8.205000311E-2,4.995000362E-2,9.846000671E0
4.961718318E0,-6.795000285E-2,4.995000362E-2,9.847950935E0
4.964218859E0,-7.500000298E-2,3.600000218E-2,9.844050407E0
4.966719472E0,-8.700000495E-2,2.595000155E-2,9.846000671E0
4.969219787E0,-7.500000298E-2,2.205000073E-2,9.859950066E0
4.971720400E0,-8.205000311E-2,4.950000439E-3,9.850950241E0
4.974220787E0,-7.695000619E-2,1.005000062E-2,9.846000671E0
4.976721323E0,-8.700000495E-2,1.005000062E-2,9.844050407E0
4.979221925E0,-7.695000619E-2,7.050000131E-3,9.856050491E0
4.981722311E0,-7.995000482E-2,-4.050000105E-3,9.834000587E0
4.984222848E0,-7.995000482E-2,-3.000000119E-2,9.862950325E0
4.986723463E0,-7.005000114E-2,-3.495000303E-2,9.847950935E0
4.989223850E0,-5.805000290E-2,-4.200000316E-2,9.841050148E0
4.991724371E0,-7.500000298E-2,-4.200000316E-2,9.834000587E0
4.994224758E0,-7.995000482E-2,-4.005000368E-2,9.847950935E0
4.996725371E0,-9.600000083E-2,-2.805000171E-2,9.841050148E0
4.999225912E0,-9.405000508E-2,-2.100000158E-2,9.859950066E0
5.001726296E0,-9.405000508E-2,-1.050000079E-3,9.856050491E0
5.004226910E0,-8.895000070E-2,1.005000062E-2,9.820050240E0
5.006727450E0,-1.180500090E-1,2.595000155E-2,9.844050407E0
5.009227835E0,-1.279500127E-1,2.895000204E-2,9.846000671E0
5.011728448E0,-1.300500035E-1,3.600000218E-2,9.844050407E0
5.014228970E0,-1.369500011E-1,5.505000427E-2,9.838950157E0
5.016729354E0,-1.390500069E-1,4.995000362E-2,9.856050491E0
5.019229968E0,-1.319999993E-1,5.700000376E-2,9.846000671E0
5.021730508E0,-1.469999999E-1,5.295000225E-2,9.846000671E0
5.024230878E0,-1.630500108E-1,4.500000179E-2,9.834000587E0
5.026731414E0,-1.469999999E-1,6.195000187E-2,9.838950157E0
5.029232030E0,-1.630500108E-1,5.295000225E-2,9.846000671E0
5.031732416E0,-1.849500090E-1,3.795000166E-2,9.847950935E0
5.034232953E0,-1.950000077E-1,4.305000231E-2,9.844050407E0
5.036733568E0,-1.729500145E-1,1.395000052E-2,9.850950241E0
5.039233955E0,-1.489500105E-1,4.950000439E-3,9.846000671E0
5.041734491E0,-1.630500108E-1,-2.295000106E-2,9.838950157E0
5.044234868E0,-1.630500108E-1,-3.705000132E-2,9.846000671E0
5.046735404E0,-1.590000093E-1,-5.400000140E-2,9.834000587E0
5.049236020E0,-1.279500127E-1,-7.304999977E-2,9.838950157E0
5.051736406E0,-1.489500105E-1,-8.505000174E-2,9.850950241E0
5.054236943E0,-1.249500066E-1,-9.195000678E-2,9.838950157E0
5.056737567E0,-1.039500013E-1,-9.705000371E-2,9.846000671E0
5.059237954E0,-1.039500013E-1,-1.069500074E-1,9.838950157E0
5.061738490E0,-9.600000083E-2,-1.069500074E-1,9.853050232E0
5.064239106E0,-9.405000508E-2,-9.195000678E-2,9.841050148E0
5.066739497E0,-1.009500027E-1,-1.069500074E-1,9.841050148E0
5.069240034E0,-9.195000678E-2,-7.605000585E-2,9.856050491E0
