"Time (s)","Gyroscope x (rad/s)","Gyroscope y (rad/s)","Gyroscope z (rad/s)"
1.257357450E-1,-3.299999982E-3,-2.612499986E-3,1.333750039E-2
1.282362860E-1,-3.299999982E-3,-1.649999991E-3,1.443750039E-2
1.307366700E-1,-2.199999988E-3,-5.499999970E-4,1.017499994E-2
1.332372840E-1,-1.374999993E-4,-1.649999991E-3,1.113750041E-2
1.357378380E-1,-1.374999993E-4,-5.499999970E-4,1.017499994E-2
1.382382230E-1,-2.199999988E-3,-5.499999970E-4,1.017499994E-2
1.407387590E-1,9.624999948E-4,-5.499999970E-4,1.113750041E-2
1.432393750E-1,-1.099999994E-3,-5.499999970E-4,9.074999951E-3
1.457397850E-1,-1.099999994E-3,-1.649999991E-3,9.074999951E-3
1.482403990E-1,-1.099999994E-3,-5.499999970E-4,6.874999963E-3
1.507407080E-1,-1.099999994E-3,-1.649999991E-3,9.074999951E-3
1.532413220E-1,-2.199999988E-3,-1.649999991E-3,9.074999951E-3
1.557418550E-1,-1.374999993E-4,-5.499999970E-4,1.017499994E-2
1.582424710E-1,-1.374999993E-4,-5.499999970E-4,7.974999957E-3
1.607428570E-1,-1.374999993E-4,-1.649999991E-3,1.017499994E-2
1.632434710E-1,-1.099999994E-3,-5.499999970E-4,1.113750041E-2
1.657437750E-1,-2.199999988E-3,1.649999991E-3,1.333750039E-2
1.682443890E-1,-1.099999994E-3,-5.499999970E-4,1.333750039E-2
1.707449270E-1,-1.374999993E-4,-5.499999970E-4,1.333750039E-2
1.732453140E-1,-1.099999994E-3,-2.612499986E-3,1.649999991E-2
1.757459270E-1,-1.374999993E-4,-1.649999991E-3,1.869999990E-2
1.782464830E-1,-1.099999994E-3,-2.612499986E-3,2.076249942E-2
1.807468670E-1,-1.099999994E-3,-5.499999970E-4,2.076249942E-2
1.832474810E-1,9.624999948E-4,1.649999991E-3,2.076249942E-2
1.857480210E-1,-1.099999994E-3,-5.499999970E-4,2.186249942E-2
1.882484010E-1,9.624999948E-4,-5.499999970E-4,2.282499894E-2
1.907490140E-1,9.624999948E-4,5.499999970E-4,2.282499894E-2
1.932495550E-1,-1.374999993E-4,1.649999991E-3,2.282499894E-2
1.957499390E-1,-1.099999994E-3,-1.649999991E-3,1.966249943E-2
1.982505380E-1,-1.099999994E-3,-1.649999991E-3,1.759999990E-2
2.007510780E-1,-1.099999994E-3,5.499999970E-4,1.759999990E-2
2.032514630E-1,-1.374999993E-4,-1.649999991E-3,1.539999992E-2
2.057520760E-1,-1.099999994E-3,-1.649999991E-3,1.443750039E-2
2.082525930E-1,-1.374999993E-4,-5.499999970E-4,1.113750041E-2
2.107529770E-1,9.624999948E-4,5.499999970E-4,9.074999951E-3
2.132535140E-1,-1.374999993E-4,-5.499999970E-4,4.812499974E-3
2.157541290E-1,9.624999948E-4,-5.499999970E-4,5.912499968E-3
2.182545160E-1,-1.374999993E-4,5.499999970E-4,3.712499980E-3
2.207550570E-1,9.624999948E-4,-5.499999970E-4,1.649999991E-3
2.232556730E-1,-1.099999994E-3,-5.499999970E-4,-5.499999970E-4
2.257560590E-1,-1.374999993E-4,-2.612499986E-3,-3.712499980E-3
2.282565960E-1,9.624999948E-4,-5.499999970E-4,-3.712499980E-3
2.307572210E-1,-1.374999993E-4,-1.649999991E-3,-5.774999969E-3
2.332576080E-1,9.624999948E-4,5.499999970E-4,-6.874999963E-3
2.357581440E-1,9.624999948E-4,1.649999991E-3,-6.874999963E-3
2.382585310E-1,9.624999948E-4,-5.499999970E-4,-1.003750041E-2
2.407591440E-1,3.162499983E-3,5.499999970E-4,-9.074999951E-3
2.432596560E-1,-1.374999993E-4,5.499999970E-4,-7.974999957E-3
2.457600400E-1,9.624999948E-4,5.499999970E-4,-7.974999957E-3
2.482605770E-1,9.624999948E-4,-5.499999970E-4,-9.074999951E-3
2.507611920E-1,-1.374999993E-4,-5.499999970E-4,-7.974999957E-3
2.532615740E-1,-1.374999993E-4,5.499999970E-4,-9.074999951E-3
2.557621100E-1,9.624999948E-4,-5.499999970E-4,-6.874999963E-3
2.582627260E-1,9.624999948E-4,5.499999970E-4,-5.774999969E-3
2.607631120E-1,9.624999948E-4,1.649999991E-3,-4.812499974E-3
2.632636390E-1,2.062499989E-3,5.499999970E-4,-2.612499986E-3
2.657642540E-1,9.624999948E-4,5.499999970E-4,-2.612499986E-3
2.682646410E-1,2.062499989E-3,5.499999970E-4,-2.612499986E-3
2.707651770E-1,9.624999948E-4,5.499999970E-4,-2.612499986E-3
2.732657640E-1,-1.374999993E-4,5.499999970E-4,-2.612499986E-3
2.757661500E-1,2.062499989E-3,-2.612499986E-3,-1.649999991E-3
2.782666870E-1,2.062499989E-3,-5.499999970E-4,-5.499999970E-4
2.807673020E-1,2.062499989E-3,1.649999991E-3,-1.649999991E-3
2.832676890E-1,2.062499989E-3,5.499999970E-4,-2.612499986E-3
2.857682010E-1,2.062499989E-3,1.649999991E-3,5.499999970E-4
2.882688170E-1,9.624999948E-4,-5.499999970E-4,-5.499999970E-4
2.907692030E-1,9.624999948E-4,5.499999970E-4,-5.499999970E-4
2.932697400E-1,-1.374999993E-4,1.649999991E-3,5.499999970E-4
2.957703460E-1,9.624999948E-4,-1.649999991E-3,1.649999991E-3
2.982707330E-1,9.624999948E-4,-1.649999991E-3,-5.499999970E-4
3.007712690E-1,-1.374999993E-4,5.499999970E-4,5.499999970E-4
3.032718850E-1,-1.374999993E-4,5.499999970E-4,5.499999970E-4
3.057722610E-1,9.624999948E-4,-1.649999991E-3,-5.499999970E-4
3.082727980E-1,2.062499989E-3,5.499999970E-4,-5.499999970E-4
3.107734130E-1,2.062499989E-3,5.499999970E-4,-1.649999991E-3
3.132738000E-1,2.062499989E-3,-1.649999991E-3,5.499999970E-4
3.157743020E-1,2.062499989E-3,-5.499999970E-4,5.499999970E-4
3.182746890E-1,2.062499989E-3,-5.499999970E-4,2.612499986E-3
3.207752250E-1,9.624999948E-4,1.649999991E-3,2.612499986E-3
3.232758410E-1,-1.374999993E-4,-1.649999991E-3,3.712499980E-3
3.257762220E-1,-1.374999993E-4,-1.649999991E-3,4.812499974E-3
3.282767590E-1,-1.374999993E-4,-1.649999991E-3,5.912499968E-3
3.307773740E-1,2.062499989E-3,-1.649999991E-3,6.874999963E-3
3.332777610E-1,9.624999948E-4,-1.649999991E-3,6.874999963E-3
3.357782970E-1,2.062499989E-3,5.499999970E-4,9.074999951E-3
3.382789230E-1,9.624999948E-4,-5.499999970E-4,1.017499994E-2
3.407793090E-1,9.624999948E-4,-5.499999970E-4,1.113750041E-2
3.432798460E-1,9.624999948E-4,5.499999970E-4,1.017499994E-2
3.457804610E-1,-1.374999993E-4,5.499999970E-4,1.223750040E-2
3.482808340E-1,9.624999948E-4,5.499999970E-4,1.113750041E-2
3.507813700E-1,9.624999948E-4,-5.499999970E-4,1.333750039E-2
3.532817570E-1,-1.374999993E-4,-1.649999991E-3,1.223750040E-2
3.557823700E-1,-1.374999993E-4,5.499999970E-4,1.017499994E-2
3.582829060E-1,-1.374999993E-4,-1.649999991E-3,9.074999951E-3
3.607832900E-1,9.624999948E-4,5.499999970E-4,7.974999957E-3
3.632839040E-1,2.062499989E-3,-1.649999991E-3,6.874999963E-3
3.657844440E-1,2.062499989E-3,-2.612499986E-3,4.812499974E-3
3.682848430E-1,-1.374999993E-4,-5.499999970E-4,6.874999963E-3
3.707854560E-1,9.624999948E-4,-1.649999991E-3,2.612499986E-3
3.732859970E-1,9.624999948E-4,-5.499999970E-4,3.712499980E-3
3.757863810E-1,-1.099999994E-3,-1.649999991E-3,2.612499986E-3
3.782869950E-1,-1.099999994E-3,-5.499999970E-4,-1.649999991E-3
3.807875350E-1,9.624999948E-4,5.499999970E-4,-3.712499980E-3
3.832879200E-1,2.062499989E-3,-1.649999991E-3,-2.612499986E-3
3.857885330E-1,9.624999948E-4,5.499999970E-4,-4.812499974E-3
3.882890450E-1,9.624999948E-4,-2.612499986E-3,-5.774999969E-3
3.907894290E-1,9.624999948E-4,-5.499999970E-4,-5.774999969E-3
3.932900430E-1,2.062499989E-3,-5.499999970E-4,-5.774999969E-3
3.957903520E-1,-1.374999993E-4,5.499999970E-4,-6.874999963E-3
3.982909660E-1,9.624999948E-4,-1.649999991E-3,-6.874999963E-3
4.007914900E-1,-1.374999993E-4,-1.649999991E-3,-5.774999969E-3
4.032918770E-1,2.062499989E-3,-2.612499986E-3,-6.874999963E-3
4.057924900E-1,-1.374999993E-4,5.499999970E-4,-4.812499974E-3
4.082930310E-1,-1.374999993E-4,-1.649999991E-3,-4.812499974E-3
4.107934150E-1,9.624999948E-4,5.499999970E-4,-4.812499974E-3
4.132940290E-1,9.624999948E-4,-5.499999970E-4,-4.812499974E-3
4.157945690E-1,2.062499989E-3,-5.499999970E-4,-4.812499974E-3
4.182949540E-1,3.162499983E-3,5.499999970E-4,-3.712499980E-3
4.207955670E-1,3.162499983E-3,5.499999970E-4,-3.712499980E-3
4.232961080E-1,9.624999948E-4,-5.499999970E-4,-2.612499986E-3
4.257964920E-1,-1.374999993E-4,-5.499999970E-4,-5.499999970E-4
4.282971060E-1,-1.374999993E-4,-5.499999970E-4,-1.649999991E-3
4.307976460E-1,2.062499989E-3,-5.499999970E-4,-2.612499986E-3
4.332980260E-1,2.062499989E-3,-5.499999970E-4,-2.612499986E-3
4.357986390E-1,2.062499989E-3,5.499999970E-4,5.499999970E-4
4.382991790E-1,2.062499989E-3,1.649999991E-3,5.499999970E-4
4.407995640E-1,2.062499989E-3,-2.612499986E-3,-5.499999970E-4
4.433001860E-1,9.624999948E-4,5.499999970E-4,5.499999970E-4
4.458007270E-1,9.624999948E-4,1.649999991E-3,1.649999991E-3
4.483011120E-1,9.624999948E-4,-1.649999991E-3,5.499999970E-4
4.508017250E-1,2.062499989E-3,-1.649999991E-3,5.499999970E-4
4.533022650E-1,2.062499989E-3,-2.612499986E-3,1.649999991E-3
4.558026500E-1,3.162499983E-3,5.499999970E-4,-1.649999991E-3
4.583032630E-1,9.624999948E-4,5.499999970E-4,-5.499999970E-4
4.608038040E-1,2.062499989E-3,-5.499999970E-4,-2.612499986E-3
4.633041890E-1,2.062499989E-3,-5.499999970E-4,-5.499999970E-4
4.658048120E-1,-1.374999993E-4,-5.499999970E-4,-2.612499986E-3
4.683051220E-1,2.062499989E-3,5.499999970E-4,-3.712499980E-3
4.708057350E-1,9.624999948E-4,-1.649999991E-3,-4.812499974E-3
4.733062730E-1,3.162499983E-3,5.499999970E-4,-3.712499980E-3
4.758068790E-1,9.624999948E-4,-1.649999991E-3,-3.712499980E-3
4.783072660E-1,9.624999948E-4,-1.649999991E-3,-4.812499974E-3
4.808078020E-1,-1.374999993E-4,-5.499999970E-4,-2.612499986E-3
4.833081890E-1,9.624999948E-4,5.499999970E-4,-3.712499980E-3
4.858088310E-1,9.624999948E-4,-5.499999970E-4,-3.712499980E-3
4.883093710E-1,9.624999948E-4,-5.499999970E-4,-3.712499980E-3
4.908097560E-1,3.162499983E-3,-5.499999970E-4,-3.712499980E-3
4.933103690E-1,9.624999948E-4,-2.612499986E-3,-2.612499986E-3
4.958108960E-1,-1.374999993E-4,-5.499999970E-4,-1.649999991E-3
4.983112810E-1,-2.199999988E-3,-5.499999970E-4,5.499999970E-4
5.008118940E-1,9.624999948E-4,-1.649999991E-3,-5.499999970E-4
5.033124340E-1,-1.099999994E-3,-5.499999970E-4,-5.499999970E-4
5.058128190E-1,9.624999948E-4,-5.499999970E-4,5.499999970E-4
5.083134270E-1,9.624999948E-4,-5.499999970E-4,1.649999991E-3
5.108139680E-1,9.624999948E-4,-2.612499986E-3,2.612499986E-3
5.133143530E-1,2.062499989E-3,-5.499999970E-4,1.649999991E-3
5.158149660E-1,-1.374999993E-4,5.499999970E-4,5.499999970E-4
5.183154870E-1,-1.374999993E-4,1.649999991E-3,-5.499999970E-4
5.208158720E-1,-1.374999993E-4,5.499999970E-4,-5.499999970E-4
5.233164080E-1,-1.374999993E-4,-5.499999970E-4,-5.499999970E-4
5.258170240E-1,-1.374999993E-4,-1.649999991E-3,-5.499999970E-4
5.283174050E-1,-1.099999994E-3,-2.612499986E-3,-1.649999991E-3
5.308179420E-1,-2.199999988E-3,-5.499999970E-4,-1.649999991E-3
5.333185570E-1,-1.099999994E-3,-5.499999970E-4,-2.612499986E-3
5.358189440E-1,-1.374999993E-4,5.499999970E-4,-5.774999969E-3
5.383194650E-1,9.624999948E-4,1.649999991E-3,-4.812499974E-3
5.408200810E-1,9.624999948E-4,-5.499999970E-4,-5.774999969E-3
5.433204670E-1,9.624999948E-4,1.649999991E-3,-6.874999963E-3
5.458210040E-1,2.062499989E-3,-5.499999970E-4,-5.774999969E-3
5.483216190E-1,-1.374999993E-4,-5.499999970E-4,-6.874999963E-3
5.508220060E-1,9.624999948E-4,5.499999970E-4,-6.874999963E-3
5.533225420E-1,9.624999948E-4,-5.499999970E-4,-5.774999969E-3
5.558231580E-1,-1.374999993E-4,5.499999970E-4,-3.712499980E-3
5.583235590E-1,-1.374999993E-4,5.499999970E-4,-1.649999991E-3
5.608240960E-1,9.624999948E-4,5.499999970E-4,-1.649999991E-3
5.633244820E-1,2.062499989E-3,2.612499986E-3,2.612499986E-3
5.658250960E-1,-1.374999993E-4,-5.499999970E-4,3.712499980E-3
5.683256360E-1,-1.374999993E-4,5.499999970E-4,3.712499980E-3
5.708260060E-1,9.624999948E-4,5.499999970E-4,4.812499974E-3
5.733265420E-1,9.624999948E-4,5.499999970E-4,7.974999957E-3
5.758271580E-1,-1.374999993E-4,5.499999970E-4,9.074999951E-3
5.783275440E-1,9.624999948E-4,-5.499999970E-4,1.113750041E-2
5.808280670E-1,-1.099999994E-3,-5.499999970E-4,1.017499994E-2
5.833286820E-1,9.624999948E-4,5.499999970E-4,1.113750041E-2
5.858290690E-1,-1.099999994E-3,-5.499999970E-4,1.017499994E-2
5.883296050E-1,-1.099999994E-3,5.499999970E-4,1.113750041E-2
5.908302160E-1,-1.099999994E-3,5.499999970E-4,1.113750041E-2
5.933306020E-1,-1.099999994E-3,5.499999970E-4,1.017499994E-2
5.958311390E-1,-1.099999994E-3,5.499999970E-4,1.113750041E-2
5.983317540E-1,-1.374999993E-4,-5.499999970E-4,1.113750041E-2
6.008321410E-1,-1.099999994E-3,-5.499999970E-4,1.223750040E-2
6.033326920E-1,-2.199999988E-3,-1.649999991E-3,1.017499994E-2
6.058333080E-1,-2.199999988E-3,-1.649999991E-3,1.017499994E-2
6.083336940E-1,-1.099999994E-3,5.499999970E-4,7.974999957E-3
6.108342310E-1,-1.374999993E-4,1.649999991E-3,9.074999951E-3
6.133348460E-1,-1.374999993E-4,-5.499999970E-4,6.874999963E-3
6.158352330E-1,-1.099999994E-3,-1.649999991E-3,4.812499974E-3
6.183357690E-1,-1.374999993E-4,5.499999970E-4,5.912499968E-3
6.208363850E-1,-2.199999988E-3,-5.499999970E-4,3.712499980E-3
6.233367810E-1,-2.199999988E-3,5.499999970E-4,1.649999991E-3
6.258373180E-1,-1.374999993E-4,-5.499999970E-4,1.649999991E-3
6.283379330E-1,-1.099999994E-3,-5.499999970E-4,-5.499999970E-4
6.308382430E-1,-2.199999988E-3,2.612499986E-3,5.499999970E-4
6.333388560E-1,9.624999948E-4,-5.499999970E-4,-1.649999991E-3
6.358392240E-1,9.624999948E-4,1.649999991E-3,-1.649999991E-3
6.383397600E-1,-1.099999994E-3,1.649999991E-3,-1.649999991E-3
6.408403760E-1,-1.374999993E-4,-5.499999970E-4,-1.649999991E-3
6.433407620E-1,-1.099999994E-3,-5.499999970E-4,-1.649999991E-3
6.458412940E-1,-1.374999993E-4,-5.499999970E-4,-2.612499986E-3
6.483419090E-1,-1.374999993E-4,5.499999970E-4,-5.499999970E-4
6.508422960E-1,-1.099999994E-3,-5.499999970E-4,-1.649999991E-3
6.533428320E-1,-1.374999993E-4,5.499999970E-4,-5.499999970E-4
6.558434530E-1,-2.199999988E-3,5.499999970E-4,-1.649999991E-3
6.583438390E-1,-1.374999993E-4,-5.499999970E-4,-3.712499980E-3
6.608443760E-1,9.624999948E-4,2.612499986E-3,-2.612499986E-3
6.633449910E-1,-1.374999993E-4,5.499999970E-4,-2.612499986E-3
6.658453780E-1,-1.099999994E-3,5.499999970E-4,-4.812499974E-3
6.683459280E-1,-1.099999994E-3,1.649999991E-3,-2.612499986E-3
6.708465440E-1,-1.099999994E-3,5.499999970E-4,-1.649999991E-3
6.733469300E-1,-1.374999993E-4,-5.499999970E-4,-1.649999991E-3
6.758474670E-1,-1.374999993E-4,1.649999991E-3,-2.612499986E-3
6.783480720E-1,-1.374999993E-4,-5.499999970E-4,-2.612499986E-3
6.808484590E-1,-1.374999993E-4,5.499999970E-4,-1.649999991E-3
6.833489950E-1,-1.374999993E-4,1.649999991E-3,-1.649999991E-3
6.858496110E-1,-1.374999993E-4,5.499999970E-4,-5.499999970E-4
6.883500020E-1,-1.374999993E-4,1.649999991E-3,5.499999970E-4
6.908505390E-1,-1.099999994E-3,-5.499999970E-4,5.499999970E-4
6.933511540E-1,-1.374999993E-4,1.649999991E-3,5.499999970E-4
6.958515410E-1,-1.099999994E-3,5.499999970E-4,5.499999970E-4
6.983520770E-1,-1.099999994E-3,-5.499999970E-4,2.612499986E-3
7.008524690E-1,-3.299999982E-3,-5.499999970E-4,2.612499986E-3
7.033530820E-1,-1.374999993E-4,-5.499999970E-4,1.649999991E-3
7.058536230E-1,-1.374999993E-4,1.649999991E-3,5.499999970E-4
7.083540070E-1,-1.099999994E-3,5.499999970E-4,1.649999991E-3
7.108546160E-1,-1.099999994E-3,-1.649999991E-3,5.499999970E-4
7.133551560E-1,-2.199999988E-3,-5.499999970E-4,5.499999970E-4
7.158555410E-1,-1.374999993E-4,-1.649999991E-3,1.649999991E-3
7.183560770E-1,-2.199999988E-3,-5.499999970E-4,5.499999970E-4
7.208566690E-1,-2.199999988E-3,-5.499999970E-4,1.649999991E-3
7.233570550E-1,-2.199999988E-3,-5.499999970E-4,1.649999991E-3
7.258575920E-1,-2.199999988E-3,-5.499999970E-4,1.649999991E-3
7.283582070E-1,-1.099999994E-3,-5.499999970E-4,2.612499986E-3
7.308585990E-1,-1.099999994E-3,1.649999991E-3,1.649999991E-3
7.333591350E-1,-1.099999994E-3,-1.649999991E-3,2.612499986E-3
7.358597510E-1,-1.099999994E-3,5.499999970E-4,-5.499999970E-4
7.383601370E-1,-2.199999988E-3,-5.499999970E-4,1.649999991E-3
7.408606740E-1,-1.374999993E-4,5.499999970E-4,-5.499999970E-4
7.433612890E-1,-3.299999982E-3,1.649999991E-3,-2.612499986E-3
7.458616760E-1,-2.199999988E-3,-5.499999970E-4,-4.812499974E-3
7.483622120E-1,-2.199999988E-3,-5.499999970E-4,-5.774999969E-3
7.508625990E-1,-3.299999982E-3,-1.649999991E-3,-5.774999969E-3
7.533632310E-1,-1.099999994E-3,-5.499999970E-4,-9.074999951E-3
7.558637720E-1,-1.099999994E-3,1.649999991E-3,-7.974999957E-3
7.583641560E-1,-1.374999993E-4,1.649999991E-3,-1.113750041E-2
7.608647700E-1,-1.099999994E-3,5.499999970E-4,-1.113750041E-2
7.633653000E-1,-1.099999994E-3,5.499999970E-4,-1.539999992E-2
7.658656850E-1,-1.099999994E-3,5.499999970E-4,-1.429999992E-2
7.683662980E-1,-1.374999993E-4,5.499999970E-4,-1.223750040E-2
7.708668390E-1,9.624999948E-4,-5.499999970E-4,-1.539999992E-2
7.733672230E-1,-1.374999993E-4,1.649999991E-3,-1.429999992E-2
7.758678220E-1,-1.099999994E-3,-5.499999970E-4,-1.539999992E-2
7.783683620E-1,9.624999948E-4,5.499999970E-4,-1.429999992E-2
7.808687470E-1,-1.374999993E-4,5.499999970E-4,-1.649999991E-2
7.833693600E-1,-1.374999993E-4,1.649999991E-3,-1.649999991E-2
7.858699010E-1,-1.374999993E-4,1.649999991E-3,-1.539999992E-2
7.883702850E-1,-1.374999993E-4,2.612499986E-3,-1.333750039E-2
7.908708990E-1,9.624999948E-4,5.499999970E-4,-1.429999992E-2
7.933714390E-1,-1.374999993E-4,5.499999970E-4,-1.223750040E-2
7.958718000E-1,-1.099999994E-3,5.499999970E-4,-1.003750041E-2
7.983723360E-1,-1.374999993E-4,5.499999970E-4,-9.074999951E-3
8.008727230E-1,-2.199999988E-3,5.499999970E-4,-6.874999963E-3
8.033733360E-1,-1.099999994E-3,-1.649999991E-3,-4.812499974E-3
8.058738770E-1,-1.374999993E-4,-5.499999970E-4,-1.649999991E-3
8.083742750E-1,-1.374999993E-4,-5.499999970E-4,-5.499999970E-4
8.108748890E-1,9.624999948E-4,-5.499999970E-4,1.649999991E-3
8.133754290E-1,-2.199999988E-3,5.499999970E-4,4.812499974E-3
8.158758140E-1,-1.374999993E-4,-1.649999991E-3,5.912499968E-3
8.183764420E-1,-2.199999988E-3,-5.499999970E-4,6.874999963E-3
8.208769830E-1,-2.199999988E-3,5.499999970E-4,9.074999951E-3
8.233773670E-1,-1.099999994E-3,1.649999991E-3,9.074999951E-3
8.258779810E-1,-2.199999988E-3,-5.499999970E-4,1.113750041E-2
8.283784820E-1,-2.199999988E-3,-1.649999991E-3,1.113750041E-2
8.308788670E-1,-1.099999994E-3,5.499999970E-4,1.017499994E-2
8.333794800E-1,-1.099999994E-3,-2.612499986E-3,9.074999951E-3
8.358800210E-1,-1.099999994E-3,5.499999970E-4,9.074999951E-3
8.383804050E-1,-1.099999994E-3,-5.499999970E-4,5.912499968E-3
8.408810190E-1,9.624999948E-4,-5.499999970E-4,6.874999963E-3
8.433815590E-1,-1.099999994E-3,-1.649999991E-3,5.912499968E-3
8.458819440E-1,-3.299999982E-3,-5.499999970E-4,4.812499974E-3
8.483825570E-1,-1.099999994E-3,-2.612499986E-3,2.612499986E-3
8.508830970E-1,-2.199999988E-3,-5.499999970E-4,1.649999991E-3
8.533834820E-1,-1.099999994E-3,5.499999970E-4,1.649999991E-3
8.558840950E-1,-3.299999982E-3,5.499999970E-4,-1.649999991E-3
8.583846360E-1,-1.374999993E-4,-5.499999970E-4,-2.612499986E-3
8.608850260E-1,-1.099999994E-3,2.612499986E-3,-3.712499980E-3
8.633856390E-1,-1.099999994E-3,-1.649999991E-3,-3.712499980E-3
8.658859490E-1,-1.374999993E-4,-5.499999970E-4,-5.774999969E-3
8.683865620E-1,-1.374999993E-4,-5.499999970E-4,-4.812499974E-3
8.708871060E-1,-1.374999993E-4,1.649999991E-3,-3.712499980E-3
8.733877210E-1,-1.099999994E-3,5.499999970E-4,-3.712499980E-3
8.758881080E-1,-1.374999993E-4,-5.499999970E-4,-5.499999970E-4
8.783886440E-1,9.624999948E-4,5.499999970E-4,2.612499986E-3
8.808890310E-1,9.624999948E-4,-1.649999991E-3,4.812499974E-3
8.833896440E-1,-1.374999993E-4,5.499999970E-4,5.912499968E-3
8.858901840E-1,-1.374999993E-4,-5.499999970E-4,7.974999957E-3
8.883905690E-1,-1.374999993E-4,-5.499999970E-4,1.017499994E-2
8.908912010E-1,-1.374999993E-4,-5.499999970E-4,1.223750040E-2
8.933917420E-1,-1.374999993E-4,5.499999970E-4,1.113750041E-2
8.958921270E-1,-1.374999993E-4,1.649999991E-3,1.333750039E-2
8.983927400E-1,-1.099999994E-3,-5.499999970E-4,1.539999992E-2
9.008932800E-1,-1.374999993E-4,-1.649999991E-3,1.333750039E-2
9.033936700E-1,9.624999948E-4,-2.612499986E-3,1.113750041E-2
9.058942070E-1,-1.374999993E-4,-5.499999970E-4,1.223750040E-2
9.083948220E-1,2.062499989E-3,5.499999970E-4,1.017499994E-2
9.108952090E-1,-1.099999994E-3,1.649999991E-3,1.113750041E-2
9.133957450E-1,9.624999948E-4,5.499999970E-4,9.074999951E-3
9.158963600E-1,9.624999948E-4,5.499999970E-4,6.874999963E-3
9.183967470E-1,2.062499989E-3,-5.499999970E-4,7.974999957E-3
9.208972830E-1,-1.374999993E-4,1.649999991E-3,5.912499968E-3
9.233979080E-1,-1.374999993E-4,-1.649999991E-3,6.874999963E-3
9.258982940E-1,-1.374999993E-4,1.649999991E-3,7.974999957E-3
9.283988310E-1,-1.374999993E-4,5.499999970E-4,5.912499968E-3
9.308994460E-1,-1.099999994E-3,-5.499999970E-4,5.912499968E-3
9.333998380E-1,-1.374999993E-4,-5.499999970E-4,4.812499974E-3
9.359003740E-1,-1.374999993E-4,5.499999970E-4,1.649999991E-3
9.384009900E-1,-1.374999993E-4,-5.499999970E-4,2.612499986E-3
9.409013760E-1,2.062499989E-3,5.499999970E-4,2.612499986E-3
9.434019130E-1,-1.374999993E-4,1.649999991E-3,5.499999970E-4
9.459025580E-1,9.624999948E-4,1.649999991E-3,5.499999970E-4
9.484028680E-1,-1.099999994E-3,-5.499999970E-4,5.499999970E-4
9.509034810E-1,-1.374999993E-4,-1.649999991E-3,-5.499999970E-4
9.534038680E-1,9.624999948E-4,-5.499999970E-4,1.649999991E-3
9.559044090E-1,9.624999948E-4,-1.649999991E-3,-5.499999970E-4
9.584050250E-1,-1.374999993E-4,-5.499999970E-4,1.649999991E-3
9.609054110E-1,-1.374999993E-4,-5.499999970E-4,1.649999991E-3
9.634059480E-1,-1.099999994E-3,5.499999970E-4,1.649999991E-3
9.659065870E-1,-1.099999994E-3,-5.499999970E-4,5.499999970E-4
9.684069740E-1,9.624999948E-4,-5.499999970E-4,5.499999970E-4
9.709075100E-1,9.624999948E-4,5.499999970E-4,1.649999991E-3
9.734081260E-1,2.062499989E-3,-5.499999970E-4,1.649999991E-3
9.759085120E-1,9.624999948E-4,5.499999970E-4,-5.499999970E-4
9.784090340E-1,-1.099999994E-3,5.499999970E-4,-5.499999970E-4
9.809096490E-1,-1.099999994E-3,5.499999970E-4,-1.649999991E-3
9.834100360E-1,9.624999948E-4,5.499999970E-4,-5.499999970E-4
9.859105720E-1,9.624999948E-4,5.499999970E-4,-1.649999991E-3
9.884111790E-1,9.624999948E-4,-5.499999970E-4,-3.712499980E-3
9.909115650E-1,2.062499989E-3,-5.499999970E-4,-5.774999969E-3
9.934121020E-1,9.624999948E-4,5.499999970E-4,-6.874999963E-3
9.959127170E-1,2.062499989E-3,5.499999970E-4,-6.874999963E-3
9.984131180E-1,-1.374999993E-4,-1.649999991E-3,-6.874999963E-3
1.000913654E0,-1.374999993E-4,-5.499999970E-4,-9.074999951E-3
1.003414270E0,2.062499989E-3,-5.499999970E-4,-9.074999951E-3
1.005914656E0,9.624999948E-4,5.499999970E-4,-7.974999957E-3
1.008415207E0,2.062499989E-3,-5.499999970E-4,-1.003750041E-2
1.010915822E0,2.062499989E-3,-5.499999970E-4,-9.074999951E-3
1.013416209E0,9.624999948E-4,-5.499999970E-4,-1.113750041E-2
1.015916745E0,-1.374999993E-4,-5.499999970E-4,-1.333750039E-2
1.018417361E0,9.624999948E-4,-5.499999970E-4,-1.223750040E-2
1.020917747E0,-1.374999993E-4,5.499999970E-4,-1.333750039E-2
1.023418284E0,2.062499989E-3,-1.649999991E-3,-1.223750040E-2
1.025918899E0,9.624999948E-4,-5.499999970E-4,-1.539999992E-2
1.028419286E0,-1.374999993E-4,-5.499999970E-4,-1.429999992E-2
1.030919827E0,2.062499989E-3,5.499999970E-4,-1.333750039E-2
1.033420214E0,9.624999948E-4,-5.499999970E-4,-1.333750039E-2
1.035920750E0,9.624999948E-4,5.499999970E-4,-1.223750040E-2
1.038421366E0,9.624999948E-4,-5.499999970E-4,-1.223750040E-2
1.040921738E0,-1.374999993E-4,-5.499999970E-4,-9.074999951E-3
1.043422275E0,-1.374999993E-4,5.499999970E-4,-1.003750041E-2
1.045922890E0,9.624999948E-4,5.499999970E-4,-6.874999963E-3
1.048423277E0,-1.374999993E-4,-5.499999970E-4,-6.874999963E-3
1.050923813E0,-1.374999993E-4,-5.499999970E-4,-6.874999963E-3
1.053424443E0,9.624999948E-4,5.499999970E-4,-4.812499974E-3
1.055924829E0,9.624999948E-4,5.499999970E-4,-3.712499980E-3
1.058425366E0,-1.374999993E-4,1.649999991E-3,-2.612499986E-3
1.060925981E0,9.624999948E-4,5.499999970E-4,-2.612499986E-3
1.063426363E0,-1.374999993E-4,1.649999991E-3,-2.612499986E-3
1.065926899E0,-1.374999993E-4,5.499999970E-4,-2.612499986E-3
1.068427286E0,-1.374999993E-4,-5.499999970E-4,-3.712499980E-3
1.070927899E0,-1.374999993E-4,5.499999970E-4,-2.612499986E-3
1.073428416E0,9.624999948E-4,-5.499999970E-4,-3.712499980E-3
1.075928800E0,-1.374999993E-4,5.499999970E-4,-5.499999970E-4
1.078429414E0,-2.199999988E-3,-5.499999970E-4,-2.612499986E-3
1.080929954E0,9.624999948E-4,5.499999970E-4,-2.612499986E-3
1.083430339E0,-1.099999994E-3,-1.649999991E-3,-4.812499974E-3
1.085930952E0,-1.374999993E-4,5.499999970E-4,-5.774999969E-3
1.088431493E0,-1.374999993E-4,5.499999970E-4,-4.812499974E-3
1.090931877E0,-1.099999994E-3,-5.499999970E-4,-4.812499974E-3
1.093432491E0,-1.374999993E-4,-5.499999970E-4,-2.612499986E-3
1.095933017E0,-1.099999994E-3,-5.499999970E-4,-1.649999991E-3
1.098433402E0,-2.199999988E-3,-5.499999970E-4,-5.499999970E-4
1.100934015E0,-1.374999993E-4,-5.499999970E-4,-1.649999991E-3
1.103434556E0,-1.374999993E-4,-1.649999991E-3,-5.499999970E-4
1.105934964E0,9.624999948E-4,-5.499999970E-4,1.649999991E-3
1.108435578E0,-1.374999993E-4,-5.499999970E-4,3.712499980E-3
1.110936118E0,-1.099999994E-3,-5.499999970E-4,2.612499986E-3
1.113436503E0,-1.099999994E-3,-1.649999991E-3,5.912499968E-3
1.115937014E0,-1.374999993E-4,5.499999970E-4,4.812499974E-3
1.118437630E0,-1.374999993E-4,-5.499999970E-4,5.912499968E-3
1.120938016E0,-2.199999988E-3,-1.649999991E-3,6.874999963E-3
1.123438553E0,-1.099999994E-3,5.499999970E-4,4.812499974E-3
1.125938920E0,-1.099999994E-3,-5.499999970E-4,4.812499974E-3
1.128439534E0,-1.374999993E-4,-5.499999970E-4,5.912499968E-3
1.130940074E0,-1.099999994E-3,-5.499999970E-4,3.712499980E-3
1.133440459E0,-1.374999993E-4,5.499999970E-4,4.812499974E-3
1.135941072E0,-1.374999993E-4,5.499999970E-4,4.812499974E-3
1.138441599E0,-1.374999993E-4,-1.649999991E-3,4.812499974E-3
1.140941983E0,-1.374999993E-4,-5.499999970E-4,5.912499968E-3
1.143442597E0,-1.374999993E-4,-1.649999991E-3,7.974999957E-3
1.145943137E0,-1.374999993E-4,5.499999970E-4,5.912499968E-3
1.148443541E0,-1.099999994E-3,-5.499999970E-4,6.874999963E-3
1.150944154E0,9.624999948E-4,5.499999970E-4,6.874999963E-3
1.153444695E0,-1.099999994E-3,-5.499999970E-4,3.712499980E-3
1.155945079E0,-1.099999994E-3,5.499999970E-4,4.812499974E-3
1.158445693E0,9.624999948E-4,-5.499999970E-4,1.649999991E-3
1.160946233E0,9.624999948E-4,5.499999970E-4,2.612499986E-3
1.163446618E0,-1.374999993E-4,-5.499999970E-4,5.499999970E-4
1.165947231E0,-1.374999993E-4,-5.499999970E-4,-1.649999991E-3
1.168447772E0,-1.374999993E-4,-5.499999970E-4,5.499999970E-4
1.170948174E0,-2.199999988E-3,5.499999970E-4,-2.612499986E-3
1.173448788E0,-1.374999993E-4,5.499999970E-4,-5.499999970E-4
1.175949328E0,-1.374999993E-4,-1.649999991E-3,-2.612499986E-3
1.178449713E0,9.624999948E-4,-5.499999970E-4,-1.649999991E-3
1.180950312E0,9.624999948E-4,5.499999970E-4,-5.499999970E-4
1.183450853E0,-1.374999993E-4,1.649999991E-3,5.499999970E-4
1.185951237E0,-1.374999993E-4,-5.499999970E-4,5.499999970E-4
1.188451774E0,9.624999948E-4,-1.649999991E-3,1.649999991E-3
1.190952160E0,9.624999948E-4,-5.499999970E-4,5.499999970E-4
1.193452774E0,9.624999948E-4,-5.499999970E-4,3.712499980E-3
1.195953314E0,9.624999948E-4,5.499999970E-4,3.712499980E-3
1.198453699E0,-1.374999993E-4,5.499999970E-4,5.499999970E-4
1.200954303E0,-1.374999993E-4,-1.649999991E-3,3.712499980E-3
1.203454844E0,-1.374999993E-4,-1.649999991E-3,3.712499980E-3
1.205955228E0,-1.099999994E-3,-1.649999991E-3,3.712499980E-3
1.208455842E0,-1.374999993E-4,-5.499999970E-4,1.649999991E-3
1.210956378E0,-1.099999994E-3,-5.499999970E-4,1.649999991E-3
1.213456763E0,2.062499989E-3,-1.649999991E-3,-5.499999970E-4
1.215957376E0,-1.374999993E-4,-5.499999970E-4,1.649999991E-3
1.218457917E0,9.624999948E-4,-5.499999970E-4,-1.649999991E-3
1.220958301E0,-1.099999994E-3,5.499999970E-4,-2.612499986E-3
1.223458919E0,-1.374999993E-4,5.499999970E-4,-4.812499974E-3
1.225959459E0,-1.099999994E-3,-5.499999970E-4,-5.774999969E-3
1.228459844E0,-1.374999993E-4,1.649999991E-3,-6.874999963E-3
1.230960457E0,9.624999948E-4,-5.499999970E-4,-5.774999969E-3
1.233460998E0,2.062499989E-3,-5.499999970E-4,-6.874999963E-3
1.235961382E0,9.624999948E-4,-5.499999970E-4,-5.774999969E-3
1.238461996E0,-1.374999993E-4,-1.649999991E-3,-7.974999957E-3
1.240962536E0,9.624999948E-4,1.649999991E-3,-6.874999963E-3
1.243462935E0,-1.374999993E-4,-5.499999970E-4,-4.812499974E-3
1.245963548E0,9.624999948E-4,-5.499999970E-4,-6.874999963E-3
1.248464088E0,9.624999948E-4,1.649999991E-3,-4.812499974E-3
1.250964473E0,-1.374999993E-4,-5.499999970E-4,-5.774999969E-3
1.253465010E0,-1.374999993E-4,-5.499999970E-4,-6.874999963E-3
1.255965634E0,9.624999948E-4,-5.499999970E-4,-6.874999963E-3
1.258466021E0,-1.374999993E-4,5.499999970E-4,-5.774999969E-3
1.260966557E0,-1.374999993E-4,5.499999970E-4,-6.874999963E-3
1.263467172E0,-1.374999993E-4,5.499999970E-4,-6.874999963E-3
1.265967559E0,9.624999948E-4,5.499999970E-4,-4.812499974E-3
1.268468096E0,9.624999948E-4,-5.499999970E-4,-3.712499980E-3
1.270968482E0,-1.374999993E-4,-5.499999970E-4,-2.612499986E-3
1.273469096E0,-1.374999993E-4,-5.499999970E-4,-3.712499980E-3
1.275969608E0,-1.374999993E-4,5.499999970E-4,-4.812499974E-3
1.278469993E0,-1.099999994E-3,5.499999970E-4,-3.712499980E-3
1.280970529E0,-1.374999993E-4,-5.499999970E-4,-3.712499980E-3
1.283471144E0,9.624999948E-4,-5.499999970E-4,-1.649999991E-3
1.285971521E0,9.624999948E-4,5.499999970E-4,-2.612499986E-3
1.288472058E0,-1.374999993E-4,-1.649999991E-3,-1.649999991E-3
1.290972673E0,-1.374999993E-4,5.499999970E-4,-4.812499974E-3
1.293473060E0,2.062499989E-3,5.499999970E-4,-4.812499974E-3
1.295973605E0,-1.374999993E-4,1.649999991E-3,-4.812499974E-3
1.298474220E0,-1.374999993E-4,-5.499999970E-4,-5.774999969E-3
1.300974607E0,9.624999948E-4,5.499999970E-4,-5.774999969E-3
1.303475144E0,-1.374999993E-4,5.499999970E-4,-5.774999969E-3
1.305975759E0,-1.374999993E-4,-5.499999970E-4,-9.074999951E-3
1.308476146E0,9.624999948E-4,5.499999970E-4,-9.074999951E-3
1.310976682E0,-1.374999993E-4,-5.499999970E-4,-9.074999951E-3
1.313477297E0,-1.374999993E-4,5.499999970E-4,-9.074999951E-3
1.315977684E0,2.062499989E-3,1.649999991E-3,-1.003750041E-2
1.318478197E0,-1.374999993E-4,-5.499999970E-4,-1.003750041E-2
1.320978812E0,-1.374999993E-4,5.499999970E-4,-1.113750041E-2
1.323479199E0,9.624999948E-4,5.499999970E-4,-1.113750041E-2
1.325979735E0,-1.374999993E-4,5.499999970E-4,-9.074999951E-3
1.328480346E0,9.624999948E-4,-5.499999970E-4,-9.074999951E-3
1.330980733E0,9.624999948E-4,-1.649999991E-3,-7.974999957E-3
1.333481269E0,9.624999948E-4,5.499999970E-4,-7.974999957E-3
1.335981885E0,9.624999948E-4,-5.499999970E-4,-6.874999963E-3
1.338482237E0,9.624999948E-4,5.499999970E-4,-5.774999969E-3
1.340982774E0,-1.374999993E-4,5.499999970E-4,-4.812499974E-3
1.343483389E0,9.624999948E-4,-5.499999970E-4,-3.712499980E-3
1.345983776E0,9.624999948E-4,-5.499999970E-4,-5.774999969E-3
1.348484317E0,9.624999948E-4,2.612499986E-3,-4.812499974E-3
1.350984933E0,-1.099999994E-3,-5.499999970E-4,-4.812499974E-3
1.353485243E0,-1.374999993E-4,5.499999970E-4,-3.712499980E-3
1.355985856E0,9.624999948E-4,-5.499999970E-4,-2.612499986E-3
1.358486243E0,2.062499989E-3,1.649999991E-3,-2.612499986E-3
1.360986778E0,9.624999948E-4,-1.649999991E-3,-2.612499986E-3
1.363487393E0,-1.374999993E-4,-5.499999970E-4,-3.712499980E-3
1.365987780E0,-1.374999993E-4,5.499999970E-4,-3.712499980E-3
1.368488316E0,-1.374999993E-4,-5.499999970E-4,-5.774999969E-3
1.370988942E0,9.624999948E-4,5.499999970E-4,-1.649999991E-3
1.373489328E0,9.624999948E-4,-1.649999991E-3,-1.649999991E-3
1.375989865E0,-1.099999994E-3,-5.499999970E-4,-2.612499986E-3
1.378490480E0,-1.374999993E-4,-5.499999970E-4,-3.712499980E-3
1.380990886E0,9.624999948E-4,-5.499999970E-4,-1.649999991E-3
1.383491422E0,-1.374999993E-4,5.499999970E-4,-1.649999991E-3
1.385992038E0,-1.374999993E-4,5.499999970E-4,-1.649999991E-3
1.388492424E0,-1.374999993E-4,-5.499999970E-4,-1.649999991E-3
1.390992942E0,9.624999948E-4,5.499999970E-4,-2.612499986E-3
1.393493557E0,-1.374999993E-4,-5.499999970E-4,-3.712499980E-3
1.395993944E0,-1.374999993E-4,-5.499999970E-4,-3.712499980E-3
1.398494480E0,-1.099999994E-3,-1.649999991E-3,-4.812499974E-3
1.400995106E0,-1.374999993E-4,-5.499999970E-4,-5.774999969E-3
1.403495492E0,-1.374999993E-4,-2.612499986E-3,-6.874999963E-3
1.405996029E0,-1.374999993E-4,5.499999970E-4,-4.812499974E-3
1.408496644E0,-1.374999993E-4,5.499999970E-4,-7.974999957E-3
1.410997045E0,-1.374999993E-4,-5.499999970E-4,-6.874999963E-3
1.413497581E0,-1.374999993E-4,5.499999970E-4,-5.774999969E-3
1.415997968E0,9.624999948E-4,5.499999970E-4,-4.812499974E-3
1.418498581E0,-1.374999993E-4,5.499999970E-4,-5.774999969E-3
1.420999112E0,-1.374999993E-4,5.499999970E-4,-2.612499986E-3
1.423499496E0,-1.374999993E-4,-1.649999991E-3,-2.612499986E-3
1.426000110E0,-1.374999993E-4,5.499999970E-4,5.499999970E-4
1.428500650E0,9.624999948E-4,5.499999970E-4,-1.649999991E-3
1.431001035E0,9.624999948E-4,5.499999970E-4,-2.612499986E-3
1.433501581E0,-1.099999994E-3,5.499999970E-4,-1.649999991E-3
1.436002197E0,9.624999948E-4,-5.499999970E-4,-5.499999970E-4
1.438502583E0,9.624999948E-4,1.649999991E-3,5.499999970E-4
1.441003120E0,-1.374999993E-4,-5.499999970E-4,-1.649999991E-3
1.443503735E0,-1.374999993E-4,5.499999970E-4,-2.612499986E-3
1.446004122E0,2.062499989E-3,1.649999991E-3,-2.612499986E-3
1.448504658E0,2.062499989E-3,5.499999970E-4,-5.499999970E-4
1.451005274E0,9.624999948E-4,5.499999970E-4,-5.499999970E-4
1.453505660E0,9.624999948E-4,-5.499999970E-4,-3.712499980E-3
1.456006197E0,-1.374999993E-4,-5.499999970E-4,-2.612499986E-3
1.458506583E0,2.062499989E-3,-5.499999970E-4,5.499999970E-4
1.461007197E0,9.624999948E-4,1.649999991E-3,-5.499999970E-4
1.463507742E0,2.062499989E-3,1.649999991E-3,-5.499999970E-4
1.466008127E0,2.062499989E-3,1.649999991E-3,5.499999970E-4
1.468508740E0,9.624999948E-4,5.499999970E-4,1.649999991E-3
1.471009281E0,-1.374999993E-4,1.649999991E-3,-5.499999970E-4
1.473509679E0,-1.374999993E-4,5.499999970E-4,-5.499999970E-4
1.476010293E0,-1.374999993E-4,5.499999970E-4,-5.499999970E-4
1.478510833E0,2.062499989E-3,-5.499999970E-4,5.499999970E-4
1.481011218E0,9.624999948E-4,1.649999991E-3,5.499999970E-4
1.483511831E0,-1.374999993E-4,-5.499999970E-4,5.499999970E-4
1.486012387E0,9.624999948E-4,1.649999991E-3,5.499999970E-4
1.488512771E0,-1.374999993E-4,-5.499999970E-4,-1.649999991E-3
1.491013385E0,-1.099999994E-3,1.649999991E-3,-5.499999970E-4
1.493513925E0,9.624999948E-4,5.499999970E-4,-5.499999970E-4
1.496014310E0,-1.099999994E-3,-5.499999970E-4,5.499999970E-4
1.498514951E0,-1.099999994E-3,-5.499999970E-4,1.649999991E-3
1.501015492E0,9.624999948E-4,-5.499999970E-4,5.499999970E-4
1.503515876E0,-1.099999994E-3,-1.649999991E-3,2.612499986E-3
1.506016490E0,-1.099999994E-3,-5.499999970E-4,2.612499986E-3
1.508517035E0,9.624999948E-4,1.649999991E-3,4.812499974E-3
1.511017420E0,-1.099999994E-3,-1.649999991E-3,3.712499980E-3
1.513517956E0,9.624999948E-4,-5.499999970E-4,2.612499986E-3
1.516018343E0,9.624999948E-4,5.499999970E-4,2.612499986E-3
1.518518947E0,9.624999948E-4,-5.499999970E-4,-5.499999970E-4
1.521019488E0,2.062499989E-3,5.499999970E-4,-2.612499986E-3
1.523519872E0,-1.374999993E-4,-1.649999991E-3,-2.612499986E-3
1.526020486E0,9.624999948E-4,-5.499999970E-4,-6.874999963E-3
1.528521026E0,9.624999948E-4,5.499999970E-4,-6.874999963E-3
1.531021411E0,-1.374999993E-4,-5.499999970E-4,-6.874999963E-3
1.533522024E0,9.624999948E-4,5.499999970E-4,-1.113750041E-2
1.536022565E0,2.062499989E-3,-5.499999970E-4,-1.113750041E-2
1.538522939E0,2.062499989E-3,1.649999991E-3,-1.333750039E-2
1.541023553E0,-1.374999993E-4,-5.499999970E-4,-1.333750039E-2
1.543524093E0,-1.374999993E-4,5.499999970E-4,-1.223750040E-2
1.546024478E0,9.624999948E-4,1.649999991E-3,-1.333750039E-2
1.548525072E0,2.062499989E-3,-1.649999991E-3,-9.074999951E-3
1.551025613E0,9.624999948E-4,5.499999970E-4,-1.113750041E-2
1.553525997E0,2.062499989E-3,-5.499999970E-4,-1.113750041E-2
1.556026611E0,9.624999948E-4,-5.499999970E-4,-1.003750041E-2
1.558527151E0,9.624999948E-4,1.649999991E-3,-1.113750041E-2
1.561027550E0,2.062499989E-3,-5.499999970E-4,-9.074999951E-3
1.563528086E0,2.062499989E-3,1.649999991E-3,-9.074999951E-3
1.566028702E0,2.062499989E-3,1.649999991E-3,-7.974999957E-3
1.568529088E0,9.624999948E-4,1.649999991E-3,-7.974999957E-3
1.571029702E0,2.062499989E-3,1.649999991E-3,-9.074999951E-3
1.573530242E0,-1.374999993E-4,5.499999970E-4,-6.874999963E-3
1.576030627E0,-1.099999994E-3,5.499999970E-4,-5.774999969E-3
1.578531163E0,-1.374999993E-4,1.649999991E-3,-4.812499974E-3
1.581031760E0,9.624999948E-4,2.612499986E-3,-3.712499980E-3
1.583532146E0,9.624999948E-4,5.499999970E-4,-5.499999970E-4
1.586032683E0,2.062499989E-3,-5.499999970E-4,-1.649999991E-3
1.588533069E0,9.624999948E-4,-5.499999970E-4,5.499999970E-4
1.591033683E0,9.624999948E-4,-5.499999970E-4,1.649999991E-3
1.593534223E0,2.062499989E-3,5.499999970E-4,2.612499986E-3
1.596034837E0,-1.374999993E-4,5.499999970E-4,5.499999970E-4
1.598535223E0,-1.374999993E-4,-5.499999970E-4,1.649999991E-3
1.601035760E0,2.062499989E-3,5.499999970E-4,5.499999970E-4
1.603536126E0,2.062499989E-3,-5.499999970E-4,1.649999991E-3
1.606036740E0,9.624999948E-4,-1.649999991E-3,-5.499999970E-4
1.608537280E0,9.624999948E-4,5.499999970E-4,-5.499999970E-4
1.611037665E0,-1.374999993E-4,-1.649999991E-3,-5.499999970E-4
1.613538288E0,9.624999948E-4,5.499999970E-4,-5.499999970E-4
1.616038829E0,2.062499989E-3,-5.499999970E-4,5.499999970E-4
1.618539213E0,2.062499989E-3,-5.499999970E-4,5.499999970E-4
1.621039827E0,9.624999948E-4,-1.649999991E-3,1.649999991E-3
1.623540367E0,-1.374999993E-4,-1.649999991E-3,-5.499999970E-4
1.626040767E0,2.062499989E-3,-5.499999970E-4,5.499999970E-4
1.628541303E0,9.624999948E-4,-5.499999970E-4,1.649999991E-3
1.631041919E0,-1.374999993E-4,-5.499999970E-4,3.712499980E-3
1.633542305E0,-1.374999993E-4,-5.499999970E-4,5.499999970E-4
1.636042857E0,9.624999948E-4,-5.499999970E-4,2.612499986E-3
1.638543472E0,2.062499989E-3,-5.499999970E-4,2.612499986E-3
1.641043859E0,9.624999948E-4,-1.649999991E-3,3.712499980E-3
1.643544395E0,2.062499989E-3,5.499999970E-4,3.712499980E-3
1.646045006E0,-1.374999993E-4,-5.499999970E-4,3.712499980E-3
1.648545392E0,9.624999948E-4,-5.499999970E-4,1.649999991E-3
1.651045929E0,-1.374999993E-4,-1.649999991E-3,1.649999991E-3
1.653546544E0,9.624999948E-4,1.649999991E-3,1.649999991E-3
1.656046931E0,9.624999948E-4,5.499999970E-4,2.612499986E-3
1.658547467E0,9.624999948E-4,-5.499999970E-4,1.649999991E-3
1.661048082E0,9.624999948E-4,1.649999991E-3,-5.499999970E-4
1.663548392E0,2.062499989E-3,1.649999991E-3,1.649999991E-3
1.666049006E0,2.062499989E-3,1.649999991E-3,5.499999970E-4
1.668549353E0,9.624999948E-4,5.499999970E-4,2.612499986E-3
1.671049890E0,9.624999948E-4,5.499999970E-4,5.499999970E-4
1.673550505E0,2.062499989E-3,-5.499999970E-4,4.812499974E-3
1.676050892E0,9.624999948E-4,-5.499999970E-4,6.874999963E-3
1.678551428E0,9.624999948E-4,-5.499999970E-4,5.912499968E-3
1.681052049E0,2.062499989E-3,1.649999991E-3,6.874999963E-3
1.683552435E0,9.624999948E-4,-5.499999970E-4,6.874999963E-3
1.686052972E0,9.624999948E-4,5.499999970E-4,9.074999951E-3
1.688553587E0,-1.374999993E-4,-5.499999970E-4,1.017499994E-2
1.691053989E0,9.624999948E-4,5.499999970E-4,1.113750041E-2
1.693554525E0,9.624999948E-4,-5.499999970E-4,1.223750040E-2
1.696055140E0,-1.374999993E-4,1.649999991E-3,1.223750040E-2
1.698555527E0,9.624999948E-4,-5.499999970E-4,1.113750041E-2
1.701056064E0,-1.374999993E-4,-1.649999991E-3,1.223750040E-2
1.703556679E0,-1.374999993E-4,5.499999970E-4,1.333750039E-2
1.706057066E0,-1.374999993E-4,1.649999991E-3,1.223750040E-2
1.708557602E0,-1.099999994E-3,-5.499999970E-4,1.333750039E-2
1.711058217E0,-1.374999993E-4,5.499999970E-4,1.443750039E-2
1.713558613E0,-1.374999993E-4,5.499999970E-4,1.223750040E-2
1.716059150E0,9.624999948E-4,-5.499999970E-4,1.223750040E-2
1.718559765E0,-1.374999993E-4,5.499999970E-4,1.223750040E-2
1.721060152E0,-1.374999993E-4,-5.499999970E-4,1.113750041E-2
1.723560688E0,9.624999948E-4,5.499999970E-4,1.113750041E-2
1.726061318E0,-1.374999993E-4,5.499999970E-4,1.017499994E-2
1.728561705E0,9.624999948E-4,-5.499999970E-4,1.017499994E-2
1.731062241E0,9.624999948E-4,5.499999970E-4,9.074999951E-3
1.733562628E0,-1.374999993E-4,5.499999970E-4,9.074999951E-3
1.736063241E0,9.624999948E-4,-5.499999970E-4,7.974999957E-3
1.738563782E0,9.624999948E-4,-5.499999970E-4,7.974999957E-3
1.741064167E0,9.624999948E-4,-5.499999970E-4,5.912499968E-3
1.743564780E0,-1.374999993E-4,-1.649999991E-3,4.812499974E-3
1.746065320E0,-1.374999993E-4,-1.649999991E-3,2.612499986E-3
1.748565705E0,9.624999948E-4,-5.499999970E-4,2.612499986E-3
1.751066242E0,-1.374999993E-4,-5.499999970E-4,1.649999991E-3
1.753566857E0,9.624999948E-4,-1.649999991E-3,-5.499999970E-4
1.756067244E0,2.062499989E-3,-1.649999991E-3,-5.499999970E-4
1.758567780E0,9.624999948E-4,5.499999970E-4,-1.649999991E-3
1.761068414E0,-1.374999993E-4,-1.649999991E-3,5.499999970E-4
1.763568801E0,-1.374999993E-4,-1.649999991E-3,-1.649999991E-3
1.766069337E0,2.062499989E-3,5.499999970E-4,-1.649999991E-3
1.768569724E0,2.062499989E-3,-1.649999991E-3,-2.612499986E-3
1.771070333E0,9.624999948E-4,-5.499999970E-4,-2.612499986E-3
1.773570873E0,-1.374999993E-4,-5.499999970E-4,-4.812499974E-3
1.776071258E0,9.624999948E-4,5.499999970E-4,-3.712499980E-3
1.778571871E0,9.624999948E-4,-5.499999970E-4,-6.874999963E-3
1.781072430E0,9.624999948E-4,5.499999970E-4,-6.874999963E-3
1.783572815E0,3.162499983E-3,1.649999991E-3,-7.974999957E-3
1.786073428E0,3.162499983E-3,5.499999970E-4,-1.003750041E-2
1.788573969E0,2.062499989E-3,5.499999970E-4,-9.074999951E-3
1.791074330E0,-1.374999993E-4,5.499999970E-4,-1.113750041E-2
1.793574943E0,2.062499989E-3,1.649999991E-3,-1.003750041E-2
1.796075483E0,3.162499983E-3,1.649999991E-3,-9.074999951E-3
1.798575868E0,2.062499989E-3,5.499999970E-4,-9.074999951E-3
1.801076471E0,9.624999948E-4,5.499999970E-4,-7.974999957E-3
1.803577012E0,2.062499989E-3,5.499999970E-4,-1.003750041E-2
1.806077397E0,2.062499989E-3,5.499999970E-4,-1.003750041E-2
1.808578010E0,2.062499989E-3,1.649999991E-3,-9.074999951E-3
1.811078530E0,2.062499989E-3,-5.499999970E-4,-1.003750041E-2
1.813578915E0,3.162499983E-3,1.649999991E-3,-1.003750041E-2
1.816079528E0,3.162499983E-3,5.499999970E-4,-9.074999951E-3
1.818580069E0,2.062499989E-3,-5.499999970E-4,-9.074999951E-3
1.821080453E0,4.124999978E-3,5.499999970E-4,-1.003750041E-2
1.823580985E0,2.062499989E-3,-5.499999970E-4,-1.003750041E-2
1.826081600E0,-1.374999993E-4,-1.649999991E-3,-1.113750041E-2
1.828581987E0,9.624999948E-4,5.499999970E-4,-1.003750041E-2
1.831082600E0,-1.374999993E-4,-1.649999991E-3,-9.074999951E-3
1.833582896E0,3.162499983E-3,5.499999970E-4,-9.074999951E-3
1.836083509E0,2.062499989E-3,-5.499999970E-4,-9.074999951E-3
1.838584048E0,9.624999948E-4,5.499999970E-4,-1.003750041E-2
1.841084435E0,9.624999948E-4,-5.499999970E-4,-7.974999957E-3
1.843585048E0,9.624999948E-4,5.499999970E-4,-7.974999957E-3
1.846085617E0,-1.374999993E-4,5.499999970E-4,-7.974999957E-3
1.848586002E0,-1.374999993E-4,-2.612499986E-3,-7.974999957E-3
1.851086615E0,9.624999948E-4,1.649999991E-3,-7.974999957E-3
1.853587156E0,-1.374999993E-4,-5.499999970E-4,-7.974999957E-3
1.856087544E0,9.624999948E-4,5.499999970E-4,-1.003750041E-2
1.858588158E0,2.062499989E-3,5.499999970E-4,-1.113750041E-2
1.861088698E0,-1.374999993E-4,-5.499999970E-4,-1.223750040E-2
1.863589083E0,-1.099999994E-3,-1.649999991E-3,-1.333750039E-2
1.866089696E0,-1.374999993E-4,-5.499999970E-4,-1.429999992E-2
1.868590237E0,2.062499989E-3,5.499999970E-4,-1.539999992E-2
1.871090621E0,3.162499983E-3,5.499999970E-4,-1.649999991E-2
1.873591235E0,-1.374999993E-4,-1.649999991E-3,-1.856249943E-2
1.876091771E0,9.624999948E-4,-5.499999970E-4,-2.076249942E-2
1.878592156E0,9.624999948E-4,-5.499999970E-4,-2.186249942E-2
1.881092769E0,-1.374999993E-4,-5.499999970E-4,-2.392499894E-2
1.883593310E0,2.062499989E-3,-1.649999991E-3,-2.502499893E-2
1.886093694E0,2.062499989E-3,-1.649999991E-3,-2.818750031E-2
1.888594231E0,2.062499989E-3,-5.499999970E-4,-2.708750032E-2
1.891094846E0,9.624999948E-4,-5.499999970E-4,-2.818750031E-2
1.893595233E0,9.624999948E-4,-5.499999970E-4,-2.708750032E-2
1.896095773E0,9.624999948E-4,-5.499999970E-4,-2.928750031E-2
1.898596389E0,2.062499989E-3,-5.499999970E-4,-2.818750031E-2
1.901096775E0,3.162499983E-3,-5.499999970E-4,-2.928750031E-2
1.903597312E0,3.162499983E-3,5.499999970E-4,-2.708750032E-2
1.906097679E0,3.162499983E-3,5.499999970E-4,-2.708750032E-2
1.908598293E0,2.062499989E-3,-5.499999970E-4,-2.708750032E-2
1.911098833E0,3.162499983E-3,5.499999970E-4,-2.612499893E-2
1.913599218E0,9.624999948E-4,-1.649999991E-3,-2.392499894E-2
1.916099831E0,9.624999948E-4,5.499999970E-4,-1.856249943E-2
1.918600348E0,2.062499989E-3,-1.649999991E-3,-1.649999991E-2
1.921100732E0,3.162499983E-3,1.649999991E-3,-1.429999992E-2
1.923601269E0,9.624999948E-4,5.499999970E-4,-1.003750041E-2
1.926101884E0,2.062499989E-3,5.499999970E-4,-6.874999963E-3
1.928602256E0,9.624999948E-4,5.499999970E-4,-4.812499974E-3
1.931102792E0,9.624999948E-4,5.499999970E-4,-1.649999991E-3
1.933603408E0,3.162499983E-3,-5.499999970E-4,-1.649999991E-3
1.936103794E0,9.624999948E-4,5.499999970E-4,2.612499986E-3
1.938604331E0,2.062499989E-3,1.649999991E-3,5.912499968E-3
1.941104951E0,9.624999948E-4,5.499999970E-4,7.974999957E-3
1.943605338E0,-1.374999993E-4,-1.649999991E-3,6.874999963E-3
1.946105874E0,-1.374999993E-4,5.499999970E-4,1.017499994E-2
1.948606490E0,-1.374999993E-4,-5.499999970E-4,9.074999951E-3
1.951106876E0,-1.374999993E-4,-5.499999970E-4,1.017499994E-2
1.953607413E0,9.624999948E-4,5.499999970E-4,1.017499994E-2
1.956108028E0,-1.374999993E-4,-1.649999991E-3,9.074999951E-3
1.958608415E0,-1.374999993E-4,5.499999970E-4,9.074999951E-3
1.961108975E0,-1.374999993E-4,5.499999970E-4,5.912499968E-3
1.963609591E0,-1.374999993E-4,-5.499999970E-4,5.912499968E-3
1.966109977E0,9.624999948E-4,-5.499999970E-4,2.612499986E-3
1.968610514E0,-1.374999993E-4,-5.499999970E-4,-5.499999970E-4
1.971111124E0,-1.374999993E-4,-5.499999970E-4,-2.612499986E-3
1.973611511E0,-1.374999993E-4,-1.649999991E-3,-3.712499980E-3
1.976112047E0,-1.374999993E-4,5.499999970E-4,-7.974999957E-3
1.978612663E0,-1.374999993E-4,-5.499999970E-4,-1.113750041E-2
1.981112982E0,9.624999948E-4,-5.499999970E-4,-1.113750041E-2
1.983613596E0,9.624999948E-4,-5.499999970E-4,-1.429999992E-2
1.986113982E0,9.624999948E-4,5.499999970E-4,-1.649999991E-2
1.988614596E0,-1.374999993E-4,-1.649999991E-3,-1.856249943E-2
1.991115122E0,9.624999948E-4,5.499999970E-4,-1.759999990E-2
1.993615507E0,-1.374999993E-4,-5.499999970E-4,-1.649999991E-2
1.996116043E0,-1.374999993E-4,-5.499999970E-4,-1.759999990E-2
1.998616659E0,9.624999948E-4,5.499999970E-4,-1.649999991E-2
2.001117045E0,9.624999948E-4,1.649999991E-3,-1.649999991E-2
2.003617582E0,-1.374999993E-4,5.499999970E-4,-1.539999992E-2
2.006118197E0,2.062499989E-3,5.499999970E-4,-1.429999992E-2
2.008618584E0,9.624999948E-4,1.649999991E-3,-1.539999992E-2
2.011119120E0,9.624999948E-4,-1.649999991E-3,-1.429999992E-2
2.013619750E0,-1.374999993E-4,-5.499999970E-4,-1.223750040E-2
2.016120136E0,-1.374999993E-4,5.499999970E-4,-1.113750041E-2
2.018620673E0,9.624999948E-4,-5.499999970E-4,-1.113750041E-2
2.021121288E0,9.624999948E-4,-5.499999970E-4,-1.003750041E-2
2.023621675E0,9.624999948E-4,-5.499999970E-4,-7.974999957E-3
2.026122211E0,-1.374999993E-4,-1.649999991E-3,-7.974999957E-3
2.028622598E0,2.062499989E-3,-1.649999991E-3,-6.874999963E-3
2.031123211E0,9.624999948E-4,-1.649999991E-3,-3.712499980E-3
2.033623743E0,9.624999948E-4,-1.649999991E-3,-3.712499980E-3
2.036124127E0,9.624999948E-4,-5.499999970E-4,-1.649999991E-3
2.038624741E0,9.624999948E-4,-5.499999970E-4,-1.649999991E-3
2.041125281E0,-1.374999993E-4,-5.499999970E-4,-5.499999970E-4
2.043625666E0,-1.374999993E-4,-1.649999991E-3,2.612499986E-3
2.046126283E0,9.624999948E-4,5.499999970E-4,3.712499980E-3
2.048626824E0,-1.374999993E-4,-5.499999970E-4,3.712499980E-3
2.051127208E0,9.624999948E-4,-5.499999970E-4,4.812499974E-3
2.053627822E0,9.624999948E-4,-5.499999970E-4,3.712499980E-3
2.056128348E0,2.062499989E-3,-5.499999970E-4,4.812499974E-3
2.058628733E0,-1.374999993E-4,-1.649999991E-3,6.874999963E-3
2.061129346E0,-1.374999993E-4,-5.499999970E-4,6.874999963E-3
2.063629656E0,-1.374999993E-4,-5.499999970E-4,4.812499974E-3
2.066130269E0,9.624999948E-4,-5.499999970E-4,6.874999963E-3
2.068630779E0,-1.374999993E-4,-2.612499986E-3,6.874999963E-3
2.071131394E0,2.062499989E-3,-1.649999991E-3,7.974999957E-3
2.073631781E0,-1.374999993E-4,-1.649999991E-3,5.912499968E-3
2.076132394E0,9.624999948E-4,-1.649999991E-3,5.912499968E-3
2.078632718E0,3.162499983E-3,-5.499999970E-4,6.874999963E-3
2.081133331E0,9.624999948E-4,-5.499999970E-4,7.974999957E-3
2.083633870E0,-1.099999994E-3,-2.612499986E-3,7.974999957E-3
2.086134256E0,2.062499989E-3,-5.499999970E-4,1.017499994E-2
2.088634899E0,2.062499989E-3,5.499999970E-4,7.974999957E-3
2.091135439E0,9.624999948E-4,-5.499999970E-4,1.113750041E-2
2.093635824E0,-1.374999993E-4,-1.649999991E-3,1.223750040E-2
2.096136437E0,-1.374999993E-4,-1.649999991E-3,1.223750040E-2
2.098636973E0,-1.099999994E-3,-5.499999970E-4,1.223750040E-2
2.101137357E0,-1.374999993E-4,-1.649999991E-3,1.223750040E-2
2.103637971E0,-1.099999994E-3,-5.499999970E-4,1.223750040E-2
2.106138511E0,9.624999948E-4,5.499999970E-4,1.333750039E-2
2.108638896E0,-1.374999993E-4,-5.499999970E-4,1.333750039E-2
2.111139519E0,-1.374999993E-4,-5.499999970E-4,1.443750039E-2
2.113640060E0,-1.374999993E-4,-1.649999991E-3,1.223750040E-2
2.116140444E0,-1.374999993E-4,-1.649999991E-3,1.113750041E-2
2.118641058E0,-1.099999994E-3,-1.649999991E-3,9.074999951E-3
2.121141598E0,9.624999948E-4,-1.649999991E-3,7.974999957E-3
2.123641983E0,-1.099999994E-3,-1.649999991E-3,6.874999963E-3
2.126142596E0,-1.099999994E-3,-5.499999970E-4,3.712499980E-3
2.128643137E0,9.624999948E-4,-1.649999991E-3,4.812499974E-3
2.131143507E0,-1.374999993E-4,-5.499999970E-4,2.612499986E-3
2.133644044E0,-1.374999993E-4,-5.499999970E-4,1.649999991E-3
2.136144659E0,2.062499989E-3,-1.649999991E-3,-5.499999970E-4
2.138645046E0,9.624999948E-4,-5.499999970E-4,-1.649999991E-3
2.141145581E0,-1.374999993E-4,-1.649999991E-3,-2.612499986E-3
2.143646196E0,9.624999948E-4,-5.499999970E-4,-3.712499980E-3
2.146146583E0,9.624999948E-4,-5.499999970E-4,-6.874999963E-3
2.148647120E0,9.624999948E-4,5.499999970E-4,-4.812499974E-3
2.151147506E0,-1.099999994E-3,-1.649999991E-3,-7.974999957E-3
2.153648116E0,-1.374999993E-4,5.499999970E-4,-6.874999963E-3
2.156148656E0,9.624999948E-4,-1.649999991E-3,-6.874999963E-3
2.158649041E0,-1.099999994E-3,-1.649999991E-3,-4.812499974E-3
2.161149654E0,9.624999948E-4,-1.649999991E-3,-4.812499974E-3
2.163650209E0,2.062499989E-3,-1.649999991E-3,-3.712499980E-3
2.166150593E0,-1.374999993E-4,5.499999970E-4,-1.649999991E-3
2.168651207E0,9.624999948E-4,-2.612499986E-3,-5.499999970E-4
2.171151747E0,9.624999948E-4,-5.499999970E-4,1.649999991E-3
2.173652137E0,-1.099999994E-3,-1.649999991E-3,1.649999991E-3
2.176152673E0,9.624999948E-4,-5.499999970E-4,2.612499986E-3
2.178653288E0,-1.374999993E-4,5.499999970E-4,3.712499980E-3
2.181153675E0,-1.099999994E-3,-5.499999970E-4,5.912499968E-3
2.183654192E0,9.624999948E-4,-2.612499986E-3,5.912499968E-3
2.186154807E0,-1.374999993E-4,-1.649999991E-3,4.812499974E-3
2.188655194E0,-1.099999994E-3,5.499999970E-4,6.874999963E-3
2.191155730E0,2.062499989E-3,-2.612499986E-3,5.912499968E-3
2.193656341E0,-1.374999993E-4,5.499999970E-4,4.812499974E-3
2.196156728E0,-1.374999993E-4,-1.649999991E-3,3.712499980E-3
2.198657265E0,2.062499989E-3,-5.499999970E-4,1.649999991E-3
2.201157880E0,-1.374999993E-4,5.499999970E-4,5.499999970E-4
2.203658267E0,-1.374999993E-4,-1.649999991E-3,-1.649999991E-3
2.206158812E0,-1.099999994E-3,-5.499999970E-4,-1.649999991E-3
2.208659427E0,-1.374999993E-4,-2.612499986E-3,-2.612499986E-3
2.211159814E0,-1.374999993E-4,-1.649999991E-3,-4.812499974E-3
2.213660350E0,-1.374999993E-4,-5.499999970E-4,-2.612499986E-3
2.216160976E0,9.624999948E-4,-5.499999970E-4,-4.812499974E-3
2.218661362E0,2.062499989E-3,-1.649999991E-3,-1.649999991E-3
2.221161899E0,9.624999948E-4,-1.649999991E-3,-2.612499986E-3
2.223662514E0,2.062499989E-3,-1.649999991E-3,-1.649999991E-3
2.226162829E0,2.062499989E-3,-1.649999991E-3,5.499999970E-4
2.228663442E0,-1.374999993E-4,-1.649999991E-3,1.649999991E-3
2.231163829E0,-1.374999993E-4,-1.649999991E-3,2.612499986E-3
2.233664366E0,-1.374999993E-4,-5.499999970E-4,2.612499986E-3
2.236164995E0,9.624999948E-4,-2.612499986E-3,3.712499980E-3
2.238665382E0,-1.374999993E-4,-2.612499986E-3,5.912499968E-3
2.241165918E0,-1.374999993E-4,-2.612499986E-3,5.912499968E-3
2.243666533E0,-1.099999994E-3,-2.612499986E-3,6.874999963E-3
2.246166920E0,-1.374999993E-4,-5.499999970E-4,4.812499974E-3
2.248667451E0,-1.374999993E-4,-1.649999991E-3,4.812499974E-3
2.251168067E0,9.624999948E-4,-3.712499980E-3,5.912499968E-3
2.253668454E0,-1.099999994E-3,-1.649999991E-3,3.712499980E-3
2.256168990E0,-1.374999993E-4,-2.612499986E-3,2.612499986E-3
2.258669591E0,2.062499989E-3,-5.499999970E-4,3.712499980E-3
2.261169978E0,9.624999948E-4,-2.612499986E-3,2.612499986E-3
2.263670514E0,-1.374999993E-4,-3.712499980E-3,3.712499980E-3
2.266171130E0,9.624999948E-4,-2.612499986E-3,2.612499986E-3
2.268671506E0,-2.199999988E-3,-1.649999991E-3,5.499999970E-4
2.271172043E0,2.062499989E-3,-2.612499986E-3,-5.499999970E-4
2.273672658E0,-1.374999993E-4,-2.612499986E-3,-1.649999991E-3
2.276173045E0,9.624999948E-4,-2.612499986E-3,-3.712499980E-3
2.278673567E0,-1.374999993E-4,-1.649999991E-3,-4.812499974E-3
2.281173954E0,9.624999948E-4,-2.612499986E-3,-4.812499974E-3
2.283674567E0,-1.374999993E-4,-5.499999970E-4,-5.774999969E-3
2.286175108E0,-1.374999993E-4,-1.649999991E-3,-7.974999957E-3
2.288675493E0,9.624999948E-4,-1.649999991E-3,-9.074999951E-3
2.291176106E0,9.624999948E-4,-1.649999991E-3,-9.074999951E-3
2.293676646E0,9.624999948E-4,-2.612499986E-3,-1.113750041E-2
2.296177031E0,9.624999948E-4,-2.612499986E-3,-1.003750041E-2
2.298677567E0,-1.374999993E-4,-1.649999991E-3,-1.223750040E-2
2.301178197E0,9.624999948E-4,-2.612499986E-3,-1.223750040E-2
2.303678583E0,9.624999948E-4,-2.612499986E-3,-1.113750041E-2
2.306179197E0,9.624999948E-4,-5.499999970E-4,-7.974999957E-3
2.308679507E0,2.062499989E-3,-3.712499980E-3,-9.074999951E-3
2.311180135E0,-1.374999993E-4,-2.612499986E-3,-5.774999969E-3
2.313680673E0,2.062499989E-3,-2.612499986E-3,-6.874999963E-3
2.316181289E0,-1.374999993E-4,-1.649999991E-3,-6.874999963E-3
2.318681675E0,9.624999948E-4,-2.612499986E-3,-6.874999963E-3
2.321182217E0,2.062499989E-3,-1.649999991E-3,-5.774999969E-3
2.323682604E0,-1.374999993E-4,-2.612499986E-3,-6.874999963E-3
2.326183217E0,-1.374999993E-4,-1.649999991E-3,-7.974999957E-3
2.328683757E0,9.624999948E-4,-2.612499986E-3,-7.974999957E-3
2.331184142E0,9.624999948E-4,-5.499999970E-4,-6.874999963E-3
2.333684755E0,9.624999948E-4,-2.612499986E-3,-6.874999963E-3
2.336185296E0,2.062499989E-3,-1.649999991E-3,-6.874999963E-3
2.338685680E0,9.624999948E-4,-5.499999970E-4,-5.774999969E-3
2.341186294E0,9.624999948E-4,-1.649999991E-3,-6.874999963E-3
2.343686839E0,3.162499983E-3,-2.612499986E-3,-5.774999969E-3
2.346187224E0,9.624999948E-4,-1.649999991E-3,-5.774999969E-3
2.348687837E0,9.624999948E-4,-1.649999991E-3,-5.774999969E-3
2.351188378E0,3.162499983E-3,-1.649999991E-3,-5.774999969E-3
2.353688757E0,9.624999948E-4,-1.649999991E-3,-3.712499980E-3
2.356189371E0,-1.374999993E-4,-1.649999991E-3,-5.774999969E-3
2.358689911E0,9.624999948E-4,-2.612499986E-3,-3.712499980E-3
2.361190296E0,9.624999948E-4,-1.649999991E-3,-4.812499974E-3
2.363690914E0,3.162499983E-3,-1.649999991E-3,-3.712499980E-3
2.366191455E0,9.624999948E-4,-2.612499986E-3,-4.812499974E-3
2.368691839E0,2.062499989E-3,-1.649999991E-3,-4.812499974E-3
2.371192376E0,9.624999948E-4,-2.612499986E-3,-6.874999963E-3
2.373692991E0,2.062499989E-3,-2.612499986E-3,-5.774999969E-3
2.376193373E0,3.162499983E-3,-1.649999991E-3,-6.874999963E-3
2.378693909E0,2.062499989E-3,-4.812499974E-3,-5.774999969E-3
2.381194296E0,2.062499989E-3,-3.712499980E-3,-6.874999963E-3
2.383694909E0,2.062499989E-3,-4.812499974E-3,-4.812499974E-3
2.386195440E0,2.062499989E-3,-2.612499986E-3,-5.774999969E-3
2.388695824E0,9.624999948E-4,-2.612499986E-3,-1.649999991E-3
2.391196438E0,2.062499989E-3,-1.649999991E-3,-1.649999991E-3
2.393696978E0,2.062499989E-3,-1.649999991E-3,-5.499999970E-4
2.396197349E0,2.062499989E-3,-2.612499986E-3,1.649999991E-3
2.398697885E0,2.062499989E-3,-1.649999991E-3,1.649999991E-3
2.401198501E0,9.624999948E-4,-5.499999970E-4,1.649999991E-3
2.403698887E0,2.062499989E-3,-2.612499986E-3,1.649999991E-3
2.406199424E0,3.162499983E-3,-1.649999991E-3,1.649999991E-3
2.408700039E0,2.062499989E-3,-1.649999991E-3,1.649999991E-3
2.411200426E0,2.062499989E-3,-2.612499986E-3,5.499999970E-4
2.413700962E0,9.624999948E-4,-1.649999991E-3,5.499999970E-4
2.416201578E0,3.162499983E-3,-1.649999991E-3,5.499999970E-4
2.418701969E0,2.062499989E-3,-1.649999991E-3,5.499999970E-4
2.421202506E0,3.162499983E-3,-1.649999991E-3,5.499999970E-4
2.423703121E0,2.062499989E-3,-2.612499986E-3,-5.499999970E-4
2.426203508E0,3.162499983E-3,-4.812499974E-3,5.499999970E-4
2.428704044E0,2.062499989E-3,-2.612499986E-3,-5.499999970E-4
2.431204660E0,4.124999978E-3,-2.612499986E-3,-1.649999991E-3
2.433705046E0,2.062499989E-3,-3.712499980E-3,5.499999970E-4
2.436205583E0,2.062499989E-3,-3.712499980E-3,5.499999970E-4
2.438706198E0,3.162499983E-3,-3.712499980E-3,5.499999970E-4
2.441206619E0,2.062499989E-3,-1.649999991E-3,2.612499986E-3
2.443707155E0,2.062499989E-3,-2.612499986E-3,1.649999991E-3
2.446207771E0,9.624999948E-4,-1.649999991E-3,1.649999991E-3
2.448708157E0,2.062499989E-3,-2.612499986E-3,3.712499980E-3
2.451208693E0,2.062499989E-3,-3.712499980E-3,7.974999957E-3
2.453709308E0,2.062499989E-3,-3.712499980E-3,7.974999957E-3
2.456209618E0,9.624999948E-4,-3.712499980E-3,9.074999951E-3
2.458710231E0,3.162499983E-3,-3.712499980E-3,1.113750041E-2
2.461210604E0,2.062499989E-3,-2.612499986E-3,1.223750040E-2
2.463711217E0,2.062499989E-3,-3.712499980E-3,1.333750039E-2
2.466211758E0,3.162499983E-3,-3.712499980E-3,1.223750040E-2
2.468712142E0,2.062499989E-3,-5.774999969E-3,1.539999992E-2
2.471212679E0,9.624999948E-4,-4.812499974E-3,1.539999992E-2
2.473713284E0,9.624999948E-4,-4.812499974E-3,1.759999990E-2
2.476213671E0,2.062499989E-3,-2.612499986E-3,1.649999991E-2
2.478714207E0,9.624999948E-4,-3.712499980E-3,1.869999990E-2
2.481214823E0,2.062499989E-3,-3.712499980E-3,1.759999990E-2
2.483715199E0,9.624999948E-4,-3.712499980E-3,1.966249943E-2
2.486215736E0,2.062499989E-3,-4.812499974E-3,2.076249942E-2
2.488716351E0,9.624999948E-4,-3.712499980E-3,2.076249942E-2
2.491216738E0,2.062499989E-3,-3.712499980E-3,1.966249943E-2
2.493717259E0,2.062499989E-3,-3.712499980E-3,2.076249942E-2
2.496217875E0,2.062499989E-3,-5.774999969E-3,1.869999990E-2
2.498718261E0,9.624999948E-4,-2.612499986E-3,1.869999990E-2
2.501218798E0,9.624999948E-4,-2.612499986E-3,1.759999990E-2
2.503719199E0,2.062499989E-3,-2.612499986E-3,1.869999990E-2
2.506219813E0,9.624999948E-4,-3.712499980E-3,1.759999990E-2
2.508720353E0,9.624999948E-4,-4.812499974E-3,1.539999992E-2
2.511220738E0,3.162499983E-3,-2.612499986E-3,1.539999992E-2
2.513721341E0,2.062499989E-3,-3.712499980E-3,1.443750039E-2
2.516221882E0,9.624999948E-4,-2.612499986E-3,1.649999991E-2
2.518722266E0,2.062499989E-3,-3.712499980E-3,1.539999992E-2
2.521222880E0,2.062499989E-3,-4.812499974E-3,1.649999991E-2
2.523723420E0,2.062499989E-3,-3.712499980E-3,1.759999990E-2
2.526223805E0,2.062499989E-3,-3.712499980E-3,1.966249943E-2
2.528724418E0,2.062499989E-3,-3.712499980E-3,1.869999990E-2
2.531224959E0,3.162499983E-3,-3.712499980E-3,1.966249943E-2
2.533725343E0,9.624999948E-4,-1.649999991E-3,1.869999990E-2
2.536225962E0,9.624999948E-4,-4.812499974E-3,2.282499894E-2
2.538726271E0,2.062499989E-3,-3.712499980E-3,2.076249942E-2
2.541226885E0,3.162499983E-3,-3.712499980E-3,2.282499894E-2
2.543727423E0,2.062499989E-3,-2.612499986E-3,1.869999990E-2
2.546228039E0,2.062499989E-3,-2.612499986E-3,1.759999990E-2
2.548728425E0,2.062499989E-3,-1.649999991E-3,1.539999992E-2
2.551229039E0,9.624999948E-4,-3.712499980E-3,1.333750039E-2
2.553729348E0,9.624999948E-4,-2.612499986E-3,1.113750041E-2
2.556229957E0,2.062499989E-3,-3.712499980E-3,1.017499994E-2
2.558730495E0,3.162499983E-3,-3.712499980E-3,6.874999963E-3
2.561230882E0,3.162499983E-3,-2.612499986E-3,5.912499968E-3
2.563731495E0,2.062499989E-3,-2.612499986E-3,4.812499974E-3
2.566232036E0,2.062499989E-3,-2.612499986E-3,2.612499986E-3
2.568732420E0,2.062499989E-3,-3.712499980E-3,1.649999991E-3
2.571233034E0,2.062499989E-3,-1.649999991E-3,1.649999991E-3
2.573733574E0,2.062499989E-3,-2.612499986E-3,5.499999970E-4
2.576233959E0,2.062499989E-3,-2.612499986E-3,5.499999970E-4
2.578734572E0,9.624999948E-4,-3.712499980E-3,5.499999970E-4
2.581235113E0,9.624999948E-4,-2.612499986E-3,-5.499999970E-4
2.583735497E0,2.062499989E-3,-2.612499986E-3,-1.649999991E-3
2.586236111E0,9.624999948E-4,-3.712499980E-3,-5.499999970E-4
2.588736665E0,2.062499989E-3,-2.612499986E-3,-1.649999991E-3
2.591237050E0,9.624999948E-4,-1.649999991E-3,-3.712499980E-3
2.593737586E0,3.162499983E-3,-4.812499974E-3,-3.712499980E-3
2.596238202E0,-1.374999993E-4,-2.612499986E-3,-4.812499974E-3
2.598738588E0,9.624999948E-4,-2.612499986E-3,-4.812499974E-3
2.601239217E0,9.624999948E-4,-2.612499986E-3,-4.812499974E-3
2.603739757E0,-1.374999993E-4,-1.649999991E-3,-7.974999957E-3
2.606240142E0,-1.099999994E-3,-1.649999991E-3,-1.003750041E-2
2.608740678E0,2.062499989E-3,-4.812499974E-3,-7.974999957E-3
2.611241274E0,9.624999948E-4,-5.499999970E-4,-1.003750041E-2
2.613741660E0,9.624999948E-4,-2.612499986E-3,-1.003750041E-2
2.616242197E0,9.624999948E-4,-1.649999991E-3,-1.223750040E-2
2.618742583E0,-1.374999993E-4,-3.712499980E-3,-1.113750041E-2
2.621243231E0,-1.374999993E-4,-5.499999970E-4,-1.333750039E-2
2.623743771E0,-1.374999993E-4,-3.712499980E-3,-1.429999992E-2
2.626244156E0,9.624999948E-4,-1.649999991E-3,-1.539999992E-2
2.628744692E0,9.624999948E-4,-2.612499986E-3,-1.649999991E-2
2.631245313E0,-1.374999993E-4,-3.712499980E-3,-1.649999991E-2
2.633745699E0,-1.374999993E-4,-2.612499986E-3,-1.856249943E-2
2.636246236E0,-1.374999993E-4,-5.499999970E-4,-1.759999990E-2
2.638746851E0,-1.099999994E-3,-2.612499986E-3,-1.966249943E-2
2.641247238E0,9.624999948E-4,-5.499999970E-4,-2.186249942E-2
2.643747783E0,2.062499989E-3,-1.649999991E-3,-2.282499894E-2
2.646248399E0,9.624999948E-4,-1.649999991E-3,-2.282499894E-2
2.648748785E0,-1.099999994E-3,-2.612499986E-3,-2.282499894E-2
2.651249322E0,2.062499989E-3,-1.649999991E-3,-2.076249942E-2
2.653749932E0,-1.374999993E-4,-1.649999991E-3,-2.186249942E-2
2.656250319E0,-1.374999993E-4,-1.649999991E-3,-2.076249942E-2
2.658750855E0,-1.099999994E-3,-5.499999970E-4,-1.966249943E-2
2.661251470E0,-1.099999994E-3,-3.712499980E-3,-2.076249942E-2
2.663751867E0,-2.199999988E-3,-2.612499986E-3,-1.856249943E-2
2.666252404E0,-1.374999993E-4,-1.649999991E-3,-1.856249943E-2
2.668753019E0,9.624999948E-4,-1.649999991E-3,-1.856249943E-2
2.671253406E0,-1.099999994E-3,-2.612499986E-3,-1.856249943E-2
2.673753942E0,-1.099999994E-3,-1.649999991E-3,-2.076249942E-2
2.676254543E0,9.624999948E-4,-3.712499980E-3,-2.076249942E-2
2.678754930E0,9.624999948E-4,-2.612499986E-3,-1.966249943E-2
2.681255467E0,2.062499989E-3,-2.612499986E-3,-2.076249942E-2
2.683756082E0,-1.099999994E-3,-1.649999991E-3,-2.076249942E-2
2.686256473E0,-1.374999993E-4,-2.612499986E-3,-2.502499893E-2
2.688757009E0,-1.374999993E-4,-2.612499986E-3,-2.612499893E-2
2.691257396E0,-1.374999993E-4,-1.649999991E-3,-2.502499893E-2
2.693758009E0,-1.099999994E-3,-2.612499986E-3,-2.612499893E-2
2.696258554E0,2.062499989E-3,-1.649999991E-3,-2.392499894E-2
2.698758939E0,-1.374999993E-4,-5.499999970E-4,-2.502499893E-2
2.701259476E0,-1.374999993E-4,-3.712499980E-3,-2.282499894E-2
2.703760091E0,9.624999948E-4,-2.612499986E-3,-2.392499894E-2
2.706260478E0,-1.099999994E-3,-3.712499980E-3,-1.966249943E-2
2.708761014E0,-1.099999994E-3,-1.649999991E-3,-1.966249943E-2
2.711261629E0,2.062499989E-3,-2.612499986E-3,-1.856249943E-2
2.713762016E0,2.062499989E-3,-1.649999991E-3,-1.649999991E-2
2.716262553E0,-1.374999993E-4,-2.612499986E-3,-1.649999991E-2
2.718763173E0,-1.099999994E-3,-1.649999991E-3,-1.429999992E-2
2.721263560E0,-1.099999994E-3,-2.612499986E-3,-1.429999992E-2
2.723764096E0,-1.374999993E-4,-3.712499980E-3,-1.333750039E-2
2.726264483E0,-1.099999994E-3,-2.612499986E-3,-1.429999992E-2
2.728765110E0,-1.374999993E-4,-1.649999991E-3,-1.223750040E-2
2.731265650E0,-1.374999993E-4,-1.649999991E-3,-1.113750041E-2
2.733766264E0,-1.099999994E-3,-2.612499986E-3,-1.223750040E-2
2.736266650E0,2.062499989E-3,-2.612499986E-3,-1.113750041E-2
2.738767202E0,9.624999948E-4,-1.649999991E-3,-6.874999963E-3
2.741267589E0,-1.099999994E-3,-3.712499980E-3,-6.874999963E-3
2.743768202E0,-1.099999994E-3,-1.649999991E-3,-6.874999963E-3
2.746268742E0,9.624999948E-4,-1.649999991E-3,-5.774999969E-3
2.748769127E0,-1.374999993E-4,-1.649999991E-3,-5.774999969E-3
2.751269740E0,9.624999948E-4,-1.649999991E-3,-5.774999969E-3
2.753770281E0,-1.374999993E-4,-1.649999991E-3,-4.812499974E-3
2.756270666E0,-1.099999994E-3,-1.649999991E-3,-4.812499974E-3
2.758771279E0,-1.374999993E-4,-2.612499986E-3,-4.812499974E-3
2.761271809E0,-1.374999993E-4,-1.649999991E-3,-4.812499974E-3
2.763772194E0,-1.374999993E-4,-2.612499986E-3,-2.612499986E-3
2.766272807E0,-1.374999993E-4,-2.612499986E-3,-3.712499980E-3
2.768773348E0,-3.299999982E-3,-1.649999991E-3,-3.712499980E-3
2.771273738E0,-1.099999994E-3,-5.499999970E-4,-2.612499986E-3
2.773774274E0,-1.099999994E-3,-2.612499986E-3,-1.649999991E-3
2.776274889E0,-2.199999988E-3,-2.612499986E-3,-3.712499980E-3
2.778775276E0,-1.374999993E-4,-2.612499986E-3,-4.812499974E-3
2.781275898E0,-3.299999982E-3,-2.612499986E-3,-4.812499974E-3
2.783776208E0,-1.099999994E-3,-1.649999991E-3,-4.812499974E-3
2.786276821E0,-1.374999993E-4,-2.612499986E-3,-4.812499974E-3
2.788777360E0,-3.299999982E-3,-2.612499986E-3,-7.974999957E-3
2.791277932E0,-1.099999994E-3,-3.712499980E-3,-7.974999957E-3
2.793778319E0,-1.099999994E-3,-2.612499986E-3,-9.074999951E-3
2.796278855E0,-2.199999988E-3,-4.812499974E-3,-9.074999951E-3
2.798779242E0,-2.199999988E-3,-3.712499980E-3,-1.113750041E-2
2.801279855E0,-1.374999993E-4,-4.812499974E-3,-1.113750041E-2
2.803780406E0,-1.099999994E-3,-2.612499986E-3,-1.223750040E-2
2.806280791E0,-2.199999988E-3,-2.612499986E-3,-1.333750039E-2
2.808781404E0,-1.099999994E-3,-2.612499986E-3,-1.429999992E-2
2.811281944E0,-2.199999988E-3,-1.649999991E-3,-1.649999991E-2
2.813782305E0,-1.374999993E-4,-1.649999991E-3,-1.759999990E-2
2.816282841E0,-1.374999993E-4,-3.712499980E-3,-2.076249942E-2
2.818783457E0,-1.099999994E-3,-2.612499986E-3,-2.186249942E-2
2.821283843E0,-1.374999993E-4,-1.649999991E-3,-2.076249942E-2
2.823784384E0,-2.199999988E-3,-2.612499986E-3,-2.612499893E-2
2.826284999E0,-2.199999988E-3,-4.812499974E-3,-2.928750031E-2
2.828785386E0,-1.374999993E-4,-2.612499986E-3,-3.135000169E-2
2.831285922E0,-1.374999993E-4,-4.812499974E-3,-3.244999796E-2
2.833786529E0,-1.374999993E-4,-2.612499986E-3,-3.671250120E-2
2.836286915E0,9.624999948E-4,-2.612499986E-3,-3.781250119E-2
2.838787452E0,9.624999948E-4,-1.649999991E-3,-4.097500071E-2
2.841288067E0,3.162499983E-3,-2.612499986E-3,-4.413750023E-2
2.843788454E0,-1.374999993E-4,-1.649999991E-3,-4.303750023E-2
2.846288990E0,2.062499989E-3,-1.649999991E-3,-4.413750023E-2
2.848789606E0,2.062499989E-3,-5.499999970E-4,-4.413750023E-2
2.851289992E0,2.062499989E-3,-1.649999991E-3,-4.207500070E-2
2.853790529E0,2.062499989E-3,-1.649999991E-3,-3.877500072E-2
2.856291144E0,2.062499989E-3,-1.649999991E-3,-3.671250120E-2
2.858791531E0,9.624999948E-4,5.499999970E-4,-3.355000168E-2
2.861292067E0,2.062499989E-3,-5.499999970E-4,-3.038750030E-2
2.863792683E0,9.624999948E-4,-1.649999991E-3,-2.818750031E-2
2.866292992E0,2.062499989E-3,5.499999970E-4,-2.392499894E-2
2.868793606E0,9.624999948E-4,-5.499999970E-4,-2.502499893E-2
2.871293992E0,9.624999948E-4,-1.649999991E-3,-2.282499894E-2
2.873794529E0,2.062499989E-3,-1.649999991E-3,-2.186249942E-2
2.876295144E0,9.624999948E-4,-5.499999970E-4,-2.076249942E-2
2.878795531E0,2.062499989E-3,-1.649999991E-3,-2.076249942E-2
2.881296067E0,2.062499989E-3,5.499999970E-4,-2.076249942E-2
2.883796683E0,9.624999948E-4,-5.499999970E-4,-1.856249943E-2
2.886297054E0,9.624999948E-4,-5.499999970E-4,-1.966249943E-2
2.888797591E0,9.624999948E-4,-5.499999970E-4,-1.759999990E-2
2.891298206E0,9.624999948E-4,-1.649999991E-3,-1.759999990E-2
2.893798593E0,9.624999948E-4,-5.499999970E-4,-1.649999991E-2
2.896299115E0,9.624999948E-4,-1.649999991E-3,-1.429999992E-2
2.898799502E0,9.624999948E-4,-1.649999991E-3,-1.429999992E-2
2.901300115E0,9.624999948E-4,-2.612499986E-3,-1.333750039E-2
2.903800656E0,9.624999948E-4,-1.649999991E-3,-1.223750040E-2
2.906301040E0,9.624999948E-4,-2.612499986E-3,-1.113750041E-2
2.908801664E0,-1.099999994E-3,-1.649999991E-3,-1.333750039E-2
2.911302204E0,9.624999948E-4,-1.649999991E-3,-1.333750039E-2
2.913802589E0,9.624999948E-4,-1.649999991E-3,-1.333750039E-2
2.916303202E0,-1.374999993E-4,-1.649999991E-3,-1.333750039E-2
2.918803752E0,-1.374999993E-4,-1.649999991E-3,-1.539999992E-2
2.921304136E0,-1.374999993E-4,-1.649999991E-3,-1.333750039E-2
2.923804750E0,2.062499989E-3,-2.612499986E-3,-1.429999992E-2
2.926305290E0,-1.374999993E-4,-3.712499980E-3,-1.333750039E-2
2.928805670E0,9.624999948E-4,-3.712499980E-3,-1.223750040E-2
2.931306206E0,9.624999948E-4,-3.712499980E-3,-9.074999951E-3
2.933806822E0,9.624999948E-4,-2.612499986E-3,-1.113750041E-2
2.936307208E0,-1.099999994E-3,-1.649999991E-3,-9.074999951E-3
2.938807822E0,-1.374999993E-4,-1.649999991E-3,-9.074999951E-3
2.941308112E0,9.624999948E-4,-2.612499986E-3,-4.812499974E-3
2.943808726E0,9.624999948E-4,-5.499999970E-4,-3.712499980E-3
2.946309264E0,2.062499989E-3,-2.612499986E-3,-2.612499986E-3
2.948809651E0,2.062499989E-3,-2.612499986E-3,-4.812499974E-3
2.951310250E0,-1.374999993E-4,-2.612499986E-3,-1.649999991E-3
2.953810791E0,2.062499989E-3,-1.649999991E-3,-3.712499980E-3
2.956311175E0,3.162499983E-3,-5.499999970E-4,-4.812499974E-3
2.958811789E0,9.624999948E-4,-2.612499986E-3,-3.712499980E-3
2.961312353E0,9.624999948E-4,-3.712499980E-3,-5.774999969E-3
2.963812738E0,9.624999948E-4,-2.612499986E-3,-5.774999969E-3
2.966313351E0,2.062499989E-3,-2.612499986E-3,-7.974999957E-3
2.968813892E0,2.062499989E-3,-2.612499986E-3,-6.874999963E-3
2.971314290E0,2.062499989E-3,-1.649999991E-3,-1.003750041E-2
2.973814904E0,9.624999948E-4,-1.649999991E-3,-7.974999957E-3
2.976315444E0,9.624999948E-4,-1.649999991E-3,-6.874999963E-3
2.978815829E0,9.624999948E-4,-4.812499974E-3,-5.774999969E-3
2.981316375E0,9.624999948E-4,-5.499999970E-4,-4.812499974E-3
2.983816991E0,3.162499983E-3,-2.612499986E-3,-5.774999969E-3
2.986317377E0,-1.374999993E-4,-2.612499986E-3,-3.712499980E-3
2.988817914E0,9.624999948E-4,-2.612499986E-3,-4.812499974E-3
2.991318529E0,-1.374999993E-4,-1.649999991E-3,-2.612499986E-3
2.993818936E0,-1.374999993E-4,-1.649999991E-3,-1.649999991E-3
2.996319472E0,9.624999948E-4,-1.649999991E-3,-2.612499986E-3
2.998820088E0,9.624999948E-4,-1.649999991E-3,-5.499999970E-4
3.001320474E0,9.624999948E-4,-1.649999991E-3,-1.649999991E-3
3.003821020E0,9.624999948E-4,-1.649999991E-3,-2.612499986E-3
3.006321635E0,9.624999948E-4,-1.649999991E-3,-2.612499986E-3
3.008821945E0,-1.374999993E-4,-1.649999991E-3,-1.649999991E-3
3.011322558E0,9.624999948E-4,-1.649999991E-3,-3.712499980E-3
3.013822955E0,3.162499983E-3,-1.649999991E-3,-2.612499986E-3
3.016323568E0,9.624999948E-4,-1.649999991E-3,-2.612499986E-3
3.018824109E0,2.062499989E-3,-2.612499986E-3,-2.612499986E-3
3.021324493E0,9.624999948E-4,-2.612499986E-3,-2.612499986E-3
3.023825016E0,2.062499989E-3,-1.649999991E-3,-5.499999970E-4
3.026325631E0,2.062499989E-3,-1.649999991E-3,-1.649999991E-3
3.028826018E0,9.624999948E-4,-3.712499980E-3,1.649999991E-3
3.031326631E0,9.624999948E-4,-2.612499986E-3,2.612499986E-3
3.033827147E0,2.062499989E-3,-2.612499986E-3,2.612499986E-3
3.036327531E0,2.062499989E-3,-2.612499986E-3,4.812499974E-3
3.038828068E0,9.624999948E-4,-2.612499986E-3,6.874999963E-3
3.041328454E0,-1.374999993E-4,-1.649999991E-3,7.974999957E-3
3.043829068E0,9.624999948E-4,-2.612499986E-3,4.812499974E-3
3.046329594E0,2.062499989E-3,-2.612499986E-3,5.912499968E-3
3.048829979E0,-1.374999993E-4,-2.612499986E-3,6.874999963E-3
3.051330592E0,9.624999948E-4,-5.499999970E-4,9.074999951E-3
3.053831133E0,9.624999948E-4,-1.649999991E-3,7.974999957E-3
3.056331517E0,-1.374999993E-4,-2.612499986E-3,7.974999957E-3
3.058832136E0,9.624999948E-4,-1.649999991E-3,5.912499968E-3
3.061332676E0,-1.374999993E-4,-1.649999991E-3,6.874999963E-3
3.063833061E0,9.624999948E-4,-5.499999970E-4,7.974999957E-3
3.066333674E0,-1.374999993E-4,-2.612499986E-3,6.874999963E-3
3.068834205E0,9.624999948E-4,-5.499999970E-4,7.974999957E-3
3.071334589E0,-1.374999993E-4,-5.499999970E-4,7.974999957E-3
3.073835203E0,-1.374999993E-4,-1.649999991E-3,6.874999963E-3
3.076335743E0,-1.374999993E-4,-3.712499980E-3,5.912499968E-3
3.078836113E0,-1.099999994E-3,-1.649999991E-3,6.874999963E-3
3.081336726E0,-1.374999993E-4,-5.499999970E-4,5.912499968E-3
3.083837267E0,9.624999948E-4,-2.612499986E-3,1.649999991E-3
3.086337651E0,-1.374999993E-4,-2.612499986E-3,2.612499986E-3
3.088838261E0,-1.374999993E-4,-1.649999991E-3,-5.499999970E-4
3.091338801E0,-1.374999993E-4,-5.499999970E-4,-3.712499980E-3
3.093839186E0,-1.099999994E-3,-1.649999991E-3,-4.812499974E-3
3.096339722E0,9.624999948E-4,-5.499999970E-4,-5.774999969E-3
3.098840338E0,-1.374999993E-4,-1.649999991E-3,-5.774999969E-3
3.101340719E0,9.624999948E-4,-1.649999991E-3,-9.074999951E-3
3.103841256E0,-1.374999993E-4,5.499999970E-4,-1.003750041E-2
3.106341642E0,-1.374999993E-4,5.499999970E-4,-7.974999957E-3
3.108842256E0,-1.374999993E-4,-1.649999991E-3,-9.074999951E-3
3.111342781E0,9.624999948E-4,5.499999970E-4,-7.974999957E-3
3.113843166E0,-1.374999993E-4,-5.499999970E-4,-6.874999963E-3
3.116343779E0,9.624999948E-4,-1.649999991E-3,-7.974999957E-3
3.118844320E0,-1.374999993E-4,5.499999970E-4,-5.774999969E-3
3.121344704E0,9.624999948E-4,5.499999970E-4,-4.812499974E-3
3.123845241E0,-1.374999993E-4,5.499999970E-4,-4.812499974E-3
3.126345856E0,9.624999948E-4,-1.649999991E-3,-1.649999991E-3
3.128846243E0,-1.374999993E-4,-5.499999970E-4,-1.649999991E-3
3.131346770E0,-1.099999994E-3,-1.649999991E-3,-1.649999991E-3
3.133847386E0,-1.374999993E-4,-5.499999970E-4,2.612499986E-3
3.136347772E0,2.062499989E-3,5.499999970E-4,2.612499986E-3
3.138848309E0,-1.099999994E-3,-2.612499986E-3,4.812499974E-3
3.141348909E0,-1.374999993E-4,5.499999970E-4,5.912499968E-3
3.143849296E0,-1.374999993E-4,-5.499999970E-4,4.812499974E-3
3.146349832E0,-1.374999993E-4,-5.499999970E-4,5.912499968E-3
3.148850448E0,-1.099999994E-3,-1.649999991E-3,9.074999951E-3
3.151350824E0,-1.099999994E-3,-1.649999991E-3,9.074999951E-3
3.153851361E0,-1.099999994E-3,-1.649999991E-3,9.074999951E-3
3.156351976E0,-1.099999994E-3,-2.612499986E-3,9.074999951E-3
3.158852363E0,-1.374999993E-4,-5.499999970E-4,1.017499994E-2
3.161352865E0,-1.099999994E-3,-5.499999970E-4,7.974999957E-3
3.163853481E0,-1.374999993E-4,-5.499999970E-4,9.074999951E-3
3.166353867E0,-1.099999994E-3,-2.612499986E-3,6.874999963E-3
3.168854404E0,-1.099999994E-3,-5.499999970E-4,2.612499986E-3
3.171354790E0,-1.099999994E-3,-2.612499986E-3,5.499999970E-4
3.173855404E0,-1.374999993E-4,5.499999970E-4,-1.649999991E-3
3.176355944E0,-1.099999994E-3,-1.649999991E-3,-2.612499986E-3
3.178856557E0,-1.374999993E-4,-5.499999970E-4,-3.712499980E-3
3.181356867E0,-1.374999993E-4,-5.499999970E-4,-5.774999969E-3
3.183857481E0,-1.374999993E-4,-5.499999970E-4,-4.812499974E-3
3.186357867E0,-1.374999993E-4,5.499999970E-4,-5.774999969E-3
3.188858404E0,-1.374999993E-4,-1.649999991E-3,-5.774999969E-3
3.191359019E0,-1.374999993E-4,-5.499999970E-4,-4.812499974E-3
3.193859416E0,2.062499989E-3,1.649999991E-3,-4.812499974E-3
3.196359952E0,-1.374999993E-4,-5.499999970E-4,-4.812499974E-3
3.198860568E0,-1.374999993E-4,-5.499999970E-4,-4.812499974E-3
3.201360954E0,-1.099999994E-3,-5.499999970E-4,5.499999970E-4
3.203861519E0,9.624999948E-4,1.649999991E-3,-5.499999970E-4
3.206361905E0,9.624999948E-4,-2.612499986E-3,2.612499986E-3
3.208862519E0,9.624999948E-4,1.649999991E-3,4.812499974E-3
3.211363059E0,9.624999948E-4,-5.499999970E-4,6.874999963E-3
3.213863658E0,-1.099999994E-3,5.499999970E-4,1.017499994E-2
3.216364045E0,-1.374999993E-4,-5.499999970E-4,1.017499994E-2
3.218864582E0,-1.374999993E-4,5.499999970E-4,1.113750041E-2
3.221364968E0,-1.374999993E-4,-5.499999970E-4,1.223750040E-2
3.223865577E0,-1.099999994E-3,-5.499999970E-4,1.223750040E-2
3.226366117E0,9.624999948E-4,-5.499999970E-4,1.223750040E-2
3.228866502E0,-1.374999993E-4,-5.499999970E-4,1.223750040E-2
3.231367115E0,9.624999948E-4,5.499999970E-4,1.333750039E-2
3.233867656E0,-1.374999993E-4,-1.649999991E-3,1.223750040E-2
3.236368069E0,-1.099999994E-3,-1.649999991E-3,1.113750041E-2
3.238868683E0,-1.374999993E-4,-5.499999970E-4,1.017499994E-2
3.241369223E0,9.624999948E-4,-5.499999970E-4,1.017499994E-2
3.243869608E0,-1.374999993E-4,-5.499999970E-4,9.074999951E-3
3.246370226E0,-1.374999993E-4,5.499999970E-4,9.074999951E-3
3.248870536E0,-1.099999994E-3,-5.499999970E-4,9.074999951E-3
3.251371149E0,-1.099999994E-3,-5.499999970E-4,6.874999963E-3
3.253871688E0,2.062499989E-3,-5.499999970E-4,7.974999957E-3
3.256372298E0,-1.374999993E-4,-5.499999970E-4,7.974999957E-3
3.258872685E0,9.624999948E-4,-5.499999970E-4,6.874999963E-3
3.261373221E0,-1.374999993E-4,-5.499999970E-4,6.874999963E-3
3.263873608E0,-1.374999993E-4,-5.499999970E-4,6.874999963E-3
3.266374211E0,-1.374999993E-4,-1.649999991E-3,6.874999963E-3
3.268874752E0,-1.374999993E-4,5.499999970E-4,5.912499968E-3
3.271375365E0,9.624999948E-4,5.499999970E-4,6.874999963E-3
3.273875752E0,-1.374999993E-4,5.499999970E-4,6.874999963E-3
3.276376302E0,-1.374999993E-4,-1.649999991E-3,9.074999951E-3
3.278876689E0,-1.374999993E-4,-1.649999991E-3,1.017499994E-2
3.281377225E0,-1.374999993E-4,-1.649999991E-3,7.974999957E-3
3.283877840E0,-1.374999993E-4,-1.649999991E-3,1.113750041E-2
3.286378242E0,-1.374999993E-4,-1.649999991E-3,1.017499994E-2
3.288878779E0,-1.374999993E-4,-1.649999991E-3,1.113750041E-2
3.291379394E0,9.624999948E-4,-2.612499986E-3,1.223750040E-2
3.293879781E0,9.624999948E-4,-2.612499986E-3,1.333750039E-2
3.296380307E0,-1.099999994E-3,-1.649999991E-3,1.443750039E-2
3.298880922E0,2.062499989E-3,-1.649999991E-3,1.539999992E-2
3.301381309E0,-1.374999993E-4,-2.612499986E-3,1.649999991E-2
3.303881846E0,-1.374999993E-4,-5.499999970E-4,1.539999992E-2
3.306382461E0,-1.374999993E-4,-5.499999970E-4,1.443750039E-2
3.308882843E0,-1.374999993E-4,-5.499999970E-4,1.649999991E-2
3.311383379E0,-1.099999994E-3,-1.649999991E-3,1.649999991E-2
3.313883994E0,9.624999948E-4,-1.649999991E-3,1.539999992E-2
3.316384381E0,-1.099999994E-3,-5.499999970E-4,1.333750039E-2
3.318884933E0,-2.199999988E-3,-5.499999970E-4,1.223750040E-2
3.321385548E0,-1.374999993E-4,-2.612499986E-3,1.223750040E-2
3.323885935E0,2.062499989E-3,-1.649999991E-3,1.223750040E-2
3.326386471E0,9.624999948E-4,-2.612499986E-3,9.074999951E-3
3.328886858E0,9.624999948E-4,-1.649999991E-3,7.974999957E-3
3.331387496E0,-1.374999993E-4,-2.612499986E-3,6.874999963E-3
3.333888036E0,2.062499989E-3,-5.499999970E-4,5.912499968E-3
3.336388421E0,-1.374999993E-4,-1.649999991E-3,4.812499974E-3
3.338889034E0,9.624999948E-4,-5.499999970E-4,5.499999970E-4
3.341389579E0,-1.374999993E-4,-5.499999970E-4,5.499999970E-4
3.343889964E0,-1.374999993E-4,-5.499999970E-4,5.499999970E-4
3.346390500E0,-1.374999993E-4,-1.649999991E-3,5.499999970E-4
3.348891115E0,-1.374999993E-4,-1.649999991E-3,-2.612499986E-3
3.351391488E0,-1.374999993E-4,-5.499999970E-4,-3.712499980E-3
3.353892025E0,2.062499989E-3,-5.499999970E-4,-4.812499974E-3
3.356392411E0,2.062499989E-3,5.499999970E-4,-3.712499980E-3
3.358893025E0,-1.374999993E-4,-1.649999991E-3,-4.812499974E-3
3.361393575E0,9.624999948E-4,5.499999970E-4,-1.649999991E-3
3.363893960E0,2.062499989E-3,-5.499999970E-4,-3.712499980E-3
3.366394573E0,9.624999948E-4,-5.499999970E-4,-2.612499986E-3
3.368895113E0,9.624999948E-4,5.499999970E-4,-5.499999970E-4
3.371395498E0,-1.099999994E-3,-5.499999970E-4,1.649999991E-3
3.373896101E0,2.062499989E-3,5.499999970E-4,5.499999970E-4
3.376396642E0,2.062499989E-3,5.499999970E-4,2.612499986E-3
3.378897027E0,9.624999948E-4,-5.499999970E-4,2.612499986E-3
3.381397640E0,2.062499989E-3,5.499999970E-4,6.874999963E-3
3.383898209E0,9.624999948E-4,-5.499999970E-4,4.812499974E-3
3.386398594E0,9.624999948E-4,-5.499999970E-4,5.912499968E-3
3.388899207E0,9.624999948E-4,5.499999970E-4,6.874999963E-3
3.391399748E0,9.624999948E-4,1.649999991E-3,5.912499968E-3
3.393900142E0,-1.099999994E-3,-5.499999970E-4,6.874999963E-3
3.396400755E0,9.624999948E-4,-5.499999970E-4,6.874999963E-3
3.398901295E0,9.624999948E-4,-5.499999970E-4,6.874999963E-3
3.401401680E0,9.624999948E-4,-5.499999970E-4,7.974999957E-3
3.403902293E0,9.624999948E-4,-5.499999970E-4,9.074999951E-3
3.406402594E0,-1.374999993E-4,5.499999970E-4,4.812499974E-3
3.408903207E0,-1.374999993E-4,-1.649999991E-3,5.912499968E-3
3.411403746E0,9.624999948E-4,-5.499999970E-4,5.912499968E-3
3.413904361E0,2.062499989E-3,-1.649999991E-3,3.712499980E-3
3.416404762E0,9.624999948E-4,5.499999970E-4,1.649999991E-3
3.418905298E0,9.624999948E-4,-5.499999970E-4,2.612499986E-3
3.421405914E0,-1.374999993E-4,5.499999970E-4,1.649999991E-3
3.423906300E0,9.624999948E-4,-5.499999970E-4,5.499999970E-4
3.426406852E0,9.624999948E-4,-5.499999970E-4,-5.499999970E-4
3.428907239E0,9.624999948E-4,5.499999970E-4,-5.499999970E-4
3.431407775E0,2.062499989E-3,1.649999991E-3,1.649999991E-3
3.433908390E0,2.062499989E-3,-5.499999970E-4,5.499999970E-4
3.436408796E0,9.624999948E-4,1.649999991E-3,3.712499980E-3
3.438909332E0,-1.374999993E-4,-5.499999970E-4,3.712499980E-3
3.441409948E0,9.624999948E-4,1.649999991E-3,4.812499974E-3
3.443910563E0,9.624999948E-4,5.499999970E-4,4.812499974E-3
3.446410882E0,9.624999948E-4,5.499999970E-4,4.812499974E-3
3.448911495E0,9.624999948E-4,1.649999991E-3,3.712499980E-3
3.451411882E0,-1.374999993E-4,-5.499999970E-4,4.812499974E-3
3.453912495E0,9.624999948E-4,-5.499999970E-4,5.912499968E-3
3.456413027E0,9.624999948E-4,5.499999970E-4,6.874999963E-3
3.458913411E0,-1.374999993E-4,5.499999970E-4,4.812499974E-3
3.461413948E0,2.062499989E-3,5.499999970E-4,4.812499974E-3
3.463914563E0,9.624999948E-4,-5.499999970E-4,4.812499974E-3
3.466414950E0,2.062499989E-3,-5.499999970E-4,4.812499974E-3
3.468915495E0,2.062499989E-3,5.499999970E-4,5.912499968E-3
3.471416111E0,9.624999948E-4,1.649999991E-3,5.912499968E-3
3.473916497E0,9.624999948E-4,5.499999970E-4,5.912499968E-3
3.476417034E0,2.062499989E-3,-5.499999970E-4,4.812499974E-3
3.478917421E0,9.624999948E-4,1.649999991E-3,3.712499980E-3
3.481418034E0,9.624999948E-4,5.499999970E-4,2.612499986E-3
3.483918574E0,3.162499983E-3,1.649999991E-3,1.649999991E-3
3.486418959E0,9.624999948E-4,5.499999970E-4,-5.499999970E-4
3.488919505E0,-1.099999994E-3,5.499999970E-4,-5.499999970E-4
3.491420121E0,9.624999948E-4,1.649999991E-3,-5.499999970E-4
3.493920507E0,9.624999948E-4,1.649999991E-3,-3.712499980E-3
3.496421121E0,2.062499989E-3,5.499999970E-4,-3.712499980E-3
3.498921655E0,9.624999948E-4,1.649999991E-3,-4.812499974E-3
3.501422040E0,3.162499983E-3,1.649999991E-3,-6.874999963E-3
3.503922576E0,9.624999948E-4,5.499999970E-4,-5.774999969E-3
3.506423192E0,9.624999948E-4,1.649999991E-3,-6.874999963E-3
3.508923593E0,9.624999948E-4,5.499999970E-4,-3.712499980E-3
3.511424207E0,2.062499989E-3,5.499999970E-4,-5.774999969E-3
3.513924517E0,-1.374999993E-4,1.649999991E-3,-4.812499974E-3
3.516425130E0,2.062499989E-3,-5.499999970E-4,-2.612499986E-3
3.518925687E0,2.062499989E-3,5.499999970E-4,-2.612499986E-3
3.521426303E0,9.624999948E-4,5.499999970E-4,-1.649999991E-3
3.523926689E0,3.162499983E-3,-5.499999970E-4,-2.612499986E-3
3.526427226E0,2.062499989E-3,5.499999970E-4,5.499999970E-4
3.528927602E0,9.624999948E-4,1.649999991E-3,2.612499986E-3
3.531428216E0,9.624999948E-4,5.499999970E-4,4.812499974E-3
3.533928756E0,2.062499989E-3,5.499999970E-4,5.912499968E-3
3.536429141E0,9.624999948E-4,5.499999970E-4,6.874999963E-3
3.538929745E0,3.162499983E-3,-5.499999970E-4,1.017499994E-2
3.541430286E0,9.624999948E-4,1.649999991E-3,1.113750041E-2
3.543930670E0,9.624999948E-4,5.499999970E-4,1.333750039E-2
3.546431284E0,-1.374999993E-4,5.499999970E-4,1.333750039E-2
3.548931804E0,9.624999948E-4,1.649999991E-3,1.443750039E-2
3.551432189E0,-1.374999993E-4,5.499999970E-4,1.539999992E-2
3.553932725E0,2.062499989E-3,5.499999970E-4,1.539999992E-2
3.556433341E0,9.624999948E-4,-5.499999970E-4,1.539999992E-2
3.558933727E0,2.062499989E-3,5.499999970E-4,1.649999991E-2
3.561434255E0,9.624999948E-4,-5.499999970E-4,1.759999990E-2
3.563934870E0,2.062499989E-3,1.649999991E-3,1.539999992E-2
3.566435257E0,9.624999948E-4,5.499999970E-4,1.333750039E-2
3.568935793E0,2.062499989E-3,5.499999970E-4,1.113750041E-2
3.571436399E0,-1.374999993E-4,5.499999970E-4,9.074999951E-3
3.573936785E0,9.624999948E-4,5.499999970E-4,9.074999951E-3
3.576437322E0,2.062499989E-3,5.499999970E-4,7.974999957E-3
3.578937937E0,-1.374999993E-4,5.499999970E-4,4.812499974E-3
3.581438233E0,-1.374999993E-4,-5.499999970E-4,4.812499974E-3
3.583938846E0,9.624999948E-4,5.499999970E-4,4.812499974E-3
3.586439233E0,-1.374999993E-4,5.499999970E-4,3.712499980E-3
3.588939846E0,9.624999948E-4,5.499999970E-4,3.712499980E-3
3.591440387E0,-1.374999993E-4,5.499999970E-4,5.912499968E-3
3.593940762E0,9.624999948E-4,-5.499999970E-4,5.912499968E-3
3.596441299E0,2.062499989E-3,-1.649999991E-3,5.912499968E-3
3.598941914E0,9.624999948E-4,5.499999970E-4,5.912499968E-3
3.601442301E0,2.062499989E-3,-2.612499986E-3,7.974999957E-3
3.603942837E0,-1.374999993E-4,-1.649999991E-3,7.974999957E-3
3.606443438E0,9.624999948E-4,-1.649999991E-3,9.074999951E-3
3.608943824E0,-1.374999993E-4,-1.649999991E-3,9.074999951E-3
3.611444361E0,-1.099999994E-3,-1.649999991E-3,7.974999957E-3
3.613944976E0,-1.099999994E-3,-1.649999991E-3,1.223750040E-2
3.616445359E0,-1.099999994E-3,-1.649999991E-3,1.017499994E-2
3.618945895E0,-2.199999988E-3,-1.649999991E-3,1.223750040E-2
3.621446282E0,-1.099999994E-3,-1.649999991E-3,1.333750039E-2
3.623946895E0,-1.099999994E-3,-5.499999970E-4,1.333750039E-2
3.626447440E0,-1.099999994E-3,-1.649999991E-3,1.333750039E-2
3.628947824E0,-1.099999994E-3,-1.649999991E-3,1.113750041E-2
3.631448438E0,-1.374999993E-4,-5.499999970E-4,1.113750041E-2
3.633948978E0,-1.099999994E-3,-5.499999970E-4,1.017499994E-2
3.636449368E0,-1.374999993E-4,-1.649999991E-3,7.974999957E-3
3.638949981E0,-1.099999994E-3,-5.499999970E-4,6.874999963E-3
3.641450522E0,-2.199999988E-3,-5.499999970E-4,5.912499968E-3
3.643950906E0,-1.099999994E-3,-2.612499986E-3,2.612499986E-3
3.646451520E0,-1.374999993E-4,-5.499999970E-4,1.649999991E-3
3.648952041E0,-1.374999993E-4,-5.499999970E-4,-1.649999991E-3
3.651452426E0,-1.099999994E-3,5.499999970E-4,-3.712499980E-3
3.653953039E0,-2.199999988E-3,-5.499999970E-4,-5.774999969E-3
3.656453349E0,-1.099999994E-3,-5.499999970E-4,-1.003750041E-2
3.658953952E0,-2.199999988E-3,-1.649999991E-3,-1.223750040E-2
3.661454491E0,-1.374999993E-4,5.499999970E-4,-1.223750040E-2
3.663955106E0,-1.374999993E-4,1.649999991E-3,-1.429999992E-2
3.666455493E0,-1.099999994E-3,1.649999991E-3,-1.539999992E-2
3.668956024E0,-1.374999993E-4,-5.499999970E-4,-1.649999991E-2
3.671456411E0,-1.374999993E-4,5.499999970E-4,-1.759999990E-2
3.673957024E0,-1.099999994E-3,-5.499999970E-4,-1.856249943E-2
3.676457565E0,-1.099999994E-3,5.499999970E-4,-1.856249943E-2
3.678958163E0,9.624999948E-4,-5.499999970E-4,-1.759999990E-2
3.681458550E0,-1.374999993E-4,5.499999970E-4,-1.649999991E-2
3.683959086E0,-1.374999993E-4,-5.499999970E-4,-1.759999990E-2
3.686459473E0,-1.374999993E-4,-5.499999970E-4,-1.759999990E-2
3.688960086E0,-1.099999994E-3,5.499999970E-4,-1.429999992E-2
3.691460642E0,-1.374999993E-4,5.499999970E-4,-1.333750039E-2
3.693961255E0,9.624999948E-4,-5.499999970E-4,-1.223750040E-2
3.696461565E0,-1.374999993E-4,5.499999970E-4,-1.223750040E-2
3.698962178E0,-1.099999994E-3,-1.649999991E-3,-1.223750040E-2
3.701462555E0,9.624999948E-4,1.649999991E-3,-1.333750039E-2
3.703963091E0,-1.374999993E-4,5.499999970E-4,-1.113750041E-2
3.706463707E0,-1.374999993E-4,1.649999991E-3,-1.223750040E-2
3.708964093E0,-1.374999993E-4,5.499999970E-4,-1.429999992E-2
3.711464630E0,-1.374999993E-4,5.499999970E-4,-1.223750040E-2
3.713965259E0,-1.099999994E-3,1.649999991E-3,-1.429999992E-2
3.716465646E0,-1.374999993E-4,1.649999991E-3,-1.113750041E-2
3.718966182E0,-1.374999993E-4,5.499999970E-4,-1.539999992E-2
3.721466798E0,-1.374999993E-4,5.499999970E-4,-1.333750039E-2
3.723967175E0,-1.374999993E-4,5.499999970E-4,-1.223750040E-2
3.726467712E0,-1.099999994E-3,1.649999991E-3,-1.429999992E-2
3.728968098E0,-1.099999994E-3,5.499999970E-4,-1.429999992E-2
3.731468712E0,-1.099999994E-3,5.499999970E-4,-1.649999991E-2
3.733969266E0,-2.199999988E-3,5.499999970E-4,-1.649999991E-2
3.736469651E0,-1.374999993E-4,5.499999970E-4,-1.649999991E-2
3.738970187E0,-1.099999994E-3,5.499999970E-4,-1.759999990E-2
3.741470803E0,-1.099999994E-3,1.649999991E-3,-1.966249943E-2
3.743971194E0,-1.374999993E-4,1.649999991E-3,-2.076249942E-2
3.746471808E0,-1.099999994E-3,2.612499986E-3,-1.966249943E-2
3.748972348E0,-1.374999993E-4,-5.499999970E-4,-2.076249942E-2
3.751472733E0,-1.099999994E-3,5.499999970E-4,-1.856249943E-2
3.753973269E0,-1.099999994E-3,5.499999970E-4,-1.966249943E-2
3.756473894E0,-2.199999988E-3,-1.649999991E-3,-1.856249943E-2
3.758974280E0,-2.199999988E-3,1.649999991E-3,-1.856249943E-2
3.761474894E0,-2.199999988E-3,1.649999991E-3,-1.649999991E-2
3.763975203E0,-1.099999994E-3,5.499999970E-4,-1.759999990E-2
3.766475822E0,-1.099999994E-3,-5.499999970E-4,-1.333750039E-2
3.768976360E0,-2.199999988E-3,-5.499999970E-4,-1.223750040E-2
3.771476747E0,-2.199999988E-3,5.499999970E-4,-1.333750039E-2
3.773977360E0,-1.099999994E-3,-5.499999970E-4,-1.223750040E-2
3.776477901E0,-1.374999993E-4,5.499999970E-4,-1.003750041E-2
3.778978285E0,-1.099999994E-3,5.499999970E-4,-6.874999963E-3
3.781478899E0,-1.099999994E-3,1.649999991E-3,-7.974999957E-3
3.783979439E0,-1.099999994E-3,-5.499999970E-4,-4.812499974E-3
3.786479829E0,-2.199999988E-3,-5.499999970E-4,-5.774999969E-3
3.788980442E0,-1.099999994E-3,5.499999970E-4,-1.649999991E-3
3.791480983E0,-1.099999994E-3,5.499999970E-4,-2.612499986E-3
3.793981367E0,-3.299999982E-3,5.499999970E-4,-2.612499986E-3
3.796481904E0,-1.099999994E-3,-5.499999970E-4,-5.499999970E-4
3.798982514E0,-2.199999988E-3,5.499999970E-4,-5.499999970E-4
3.801482901E0,-1.374999993E-4,-5.499999970E-4,1.649999991E-3
3.803983437E0,-2.199999988E-3,-5.499999970E-4,5.499999970E-4
3.806484053E0,-1.099999994E-3,5.499999970E-4,1.649999991E-3
3.808984444E0,-2.199999988E-3,-5.499999970E-4,1.649999991E-3
3.811484981E0,-2.199999988E-3,1.649999991E-3,5.499999970E-4
3.813985596E0,-2.199999988E-3,-5.499999970E-4,5.499999970E-4
3.816485906E0,-1.099999994E-3,-5.499999970E-4,-5.499999970E-4
3.818986548E0,-2.199999988E-3,-5.499999970E-4,5.499999970E-4
3.821486935E0,-2.199999988E-3,1.649999991E-3,5.499999970E-4
3.823987548E0,-1.374999993E-4,5.499999970E-4,-1.649999991E-3
3.826488089E0,-2.199999988E-3,5.499999970E-4,-5.499999970E-4
3.828988482E0,-1.099999994E-3,-5.499999970E-4,-5.499999970E-4
3.831489019E0,-2.199999988E-3,-5.499999970E-4,5.499999970E-4
3.833989634E0,-2.199999988E-3,5.499999970E-4,-5.499999970E-4
3.836490021E0,-1.099999994E-3,1.649999991E-3,-5.499999970E-4
3.838990562E0,-3.299999982E-3,-5.499999970E-4,-5.499999970E-4
3.841491178E0,-1.099999994E-3,1.649999991E-3,2.612499986E-3
3.843991564E0,-1.099999994E-3,5.499999970E-4,3.712499980E-3
3.846492101E0,-2.199999988E-3,1.649999991E-3,1.649999991E-3
3.848992716E0,-2.199999988E-3,-5.499999970E-4,2.612499986E-3
3.851493089E0,-2.199999988E-3,-1.649999991E-3,2.612499986E-3
3.853993625E0,-2.199999988E-3,-5.499999970E-4,5.912499968E-3
3.856494241E0,-2.199999988E-3,5.499999970E-4,4.812499974E-3
3.858994627E0,-1.374999993E-4,5.499999970E-4,4.812499974E-3
3.861495136E0,-2.199999988E-3,1.649999991E-3,4.812499974E-3
3.863995522E0,-1.099999994E-3,-5.499999970E-4,5.912499968E-3
3.866496136E0,-2.199999988E-3,5.499999970E-4,4.812499974E-3
3.868996676E0,-2.199999988E-3,5.499999970E-4,3.712499980E-3
3.871497089E0,-1.099999994E-3,5.499999970E-4,2.612499986E-3
3.873997702E0,-1.099999994E-3,5.499999970E-4,3.712499980E-3
3.876498243E0,-2.199999988E-3,5.499999970E-4,2.612499986E-3
3.878998627E0,-2.199999988E-3,5.499999970E-4,-5.499999970E-4
3.881499231E0,-1.099999994E-3,1.649999991E-3,-2.612499986E-3
3.883999771E0,-2.199999988E-3,-1.649999991E-3,5.499999970E-4
3.886500156E0,-1.099999994E-3,-5.499999970E-4,-5.774999969E-3
3.889000769E0,-1.099999994E-3,-5.499999970E-4,-4.812499974E-3
3.891501093E0,-1.099999994E-3,1.649999991E-3,-5.774999969E-3
3.894001706E0,-1.099999994E-3,-5.499999970E-4,-9.074999951E-3
3.896502245E0,-1.099999994E-3,1.649999991E-3,-9.074999951E-3
3.899002860E0,-1.099999994E-3,5.499999970E-4,-1.113750041E-2
3.901503247E0,-3.299999982E-3,5.499999970E-4,-1.113750041E-2
3.904003774E0,-1.099999994E-3,1.649999991E-3,-1.113750041E-2
3.906504161E0,-1.099999994E-3,1.649999991E-3,-1.223750040E-2
3.909004774E0,-1.374999993E-4,5.499999970E-4,-1.113750041E-2
3.911505315E0,-1.374999993E-4,5.499999970E-4,-1.223750040E-2
3.914005708E0,-1.099999994E-3,-1.649999991E-3,-1.003750041E-2
3.916506322E0,-1.374999993E-4,5.499999970E-4,-1.113750041E-2
3.919006862E0,-2.199999988E-3,1.649999991E-3,-1.223750040E-2
3.921507247E0,-2.199999988E-3,5.499999970E-4,-1.003750041E-2
3.924007851E0,-1.099999994E-3,1.649999991E-3,-1.003750041E-2
3.926508392E0,9.624999948E-4,1.649999991E-3,-1.003750041E-2
3.929009005E0,-1.374999993E-4,-5.499999970E-4,-9.074999951E-3
3.931509315E0,-1.099999994E-3,1.649999991E-3,-9.074999951E-3
3.934009942E0,-1.374999993E-4,1.649999991E-3,-1.003750041E-2
3.936510329E0,-1.099999994E-3,1.649999991E-3,-9.074999951E-3
3.939010865E0,-1.374999993E-4,2.612499986E-3,-1.003750041E-2
3.941511481E0,-1.374999993E-4,1.649999991E-3,-7.974999957E-3
3.944011882E0,9.624999948E-4,2.612499986E-3,-6.874999963E-3
3.946512419E0,-2.199999988E-3,1.649999991E-3,-9.074999951E-3
3.949013034E0,-1.374999993E-4,1.649999991E-3,-6.874999963E-3
3.951513421E0,-1.099999994E-3,5.499999970E-4,-4.812499974E-3
3.954013952E0,-1.374999993E-4,1.649999991E-3,-3.712499980E-3
3.956514567E0,9.624999948E-4,5.499999970E-4,-3.712499980E-3
3.959014954E0,-1.099999994E-3,1.649999991E-3,-4.812499974E-3
3.961515491E0,-1.374999993E-4,2.612499986E-3,-1.649999991E-3
3.964015877E0,9.624999948E-4,5.499999970E-4,5.499999970E-4
3.966516491E0,9.624999948E-4,5.499999970E-4,5.499999970E-4
3.969017031E0,-1.099999994E-3,1.649999991E-3,5.499999970E-4
3.971517416E0,-1.374999993E-4,5.499999970E-4,5.499999970E-4
3.974017937E0,-1.099999994E-3,1.649999991E-3,5.499999970E-4
3.976518553E0,-1.099999994E-3,-5.499999970E-4,5.499999970E-4
3.979018939E0,9.624999948E-4,5.499999970E-4,-5.499999970E-4
3.981519553E0,-1.374999993E-4,5.499999970E-4,2.612499986E-3
3.984019844E0,-1.374999993E-4,-5.499999970E-4,5.499999970E-4
3.986520458E0,-1.099999994E-3,1.649999991E-3,5.499999970E-4
3.989020996E0,-1.374999993E-4,-1.649999991E-3,5.499999970E-4
3.991521611E0,-1.099999994E-3,-5.499999970E-4,1.649999991E-3
3.994021998E0,-1.374999993E-4,-1.649999991E-3,5.499999970E-4
3.996522602E0,-1.374999993E-4,5.499999970E-4,2.612499986E-3
3.999022911E0,9.624999948E-4,5.499999970E-4,5.499999970E-4
4.001523525E0,-1.374999993E-4,-5.499999970E-4,-5.499999970E-4
4.004024063E0,-1.099999994E-3,5.499999970E-4,-2.612499986E-3
4.006524455E0,-1.374999993E-4,5.499999970E-4,-2.612499986E-3
4.009025068E0,-1.374999993E-4,5.499999970E-4,-4.812499974E-3
4.011525609E0,-1.374999993E-4,5.499999970E-4,-5.774999969E-3
4.014025993E0,-1.099999994E-3,5.499999970E-4,-6.874999963E-3
4.016526621E0,-1.374999993E-4,5.499999970E-4,-5.774999969E-3
4.019027161E0,-1.374999993E-4,1.649999991E-3,-9.074999951E-3
4.021527546E0,-1.374999993E-4,5.499999970E-4,-7.974999957E-3
4.024028082E0,-1.374999993E-4,1.649999991E-3,-6.874999963E-3
4.026528707E0,-1.374999993E-4,-1.649999991E-3,-7.974999957E-3
4.029029094E0,9.624999948E-4,1.649999991E-3,-7.974999957E-3
4.031529631E0,9.624999948E-4,1.649999991E-3,-5.774999969E-3
4.034030246E0,9.624999948E-4,5.499999970E-4,-5.774999969E-3
4.036530628E0,2.062499989E-3,1.649999991E-3,-3.712499980E-3
4.039031164E0,-1.099999994E-3,-5.499999970E-4,-4.812499974E-3
4.041531779E0,-1.374999993E-4,5.499999970E-4,-3.712499980E-3
4.044032166E0,-1.374999993E-4,1.649999991E-3,-2.612499986E-3
4.046532703E0,-1.374999993E-4,5.499999970E-4,-1.649999991E-3
4.049033318E0,-1.099999994E-3,5.499999970E-4,-1.649999991E-3
4.051533705E0,-1.099999994E-3,5.499999970E-4,-5.499999970E-4
4.054034241E0,-1.099999994E-3,-5.499999970E-4,5.499999970E-4
4.056534628E0,-1.099999994E-3,1.649999991E-3,-1.649999991E-3
4.059035251E0,-1.099999994E-3,5.499999970E-4,-1.649999991E-3
4.061535792E0,-1.099999994E-3,5.499999970E-4,-1.649999991E-3
4.064036176E0,-1.099999994E-3,1.649999991E-3,-5.499999970E-4
4.066536713E0,9.624999948E-4,5.499999970E-4,-3.712499980E-3
4.069037328E0,-1.099999994E-3,1.649999991E-3,-3.712499980E-3
4.071537724E0,-1.374999993E-4,5.499999970E-4,-4.812499974E-3
4.074038260E0,-1.374999993E-4,5.499999970E-4,-4.812499974E-3
4.076538875E0,-1.099999994E-3,1.649999991E-3,-6.874999963E-3
4.079039262E0,-1.374999993E-4,-5.499999970E-4,-6.874999963E-3
4.081539861E0,-1.099999994E-3,5.499999970E-4,-7.974999957E-3
4.084040171E0,-1.374999993E-4,1.649999991E-3,-7.974999957E-3
4.086540785E0,-1.374999993E-4,-5.499999970E-4,-9.074999951E-3
4.089041323E0,-1.374999993E-4,1.649999991E-3,-1.223750040E-2
4.091541720E0,2.062499989E-3,-5.499999970E-4,-1.003750041E-2
4.094042333E0,-1.099999994E-3,5.499999970E-4,-1.223750040E-2
4.096542874E0,-1.099999994E-3,1.649999991E-3,-1.333750039E-2
4.099043258E0,-1.099999994E-3,5.499999970E-4,-1.333750039E-2
4.101543852E0,-1.099999994E-3,5.499999970E-4,-1.649999991E-2
4.104044392E0,-1.374999993E-4,1.649999991E-3,-1.539999992E-2
4.106544777E0,9.624999948E-4,-5.499999970E-4,-1.759999990E-2
4.109045390E0,-1.374999993E-4,5.499999970E-4,-1.966249943E-2
4.111545925E0,2.062499989E-3,-5.499999970E-4,-1.966249943E-2
4.114046310E0,9.624999948E-4,1.649999991E-3,-2.076249942E-2
4.116546923E0,9.624999948E-4,3.712499980E-3,-2.186249942E-2
4.119047464E0,9.624999948E-4,5.499999970E-4,-2.186249942E-2
4.121547849E0,9.624999948E-4,1.649999991E-3,-2.282499894E-2
4.124048462E0,-1.374999993E-4,3.712499980E-3,-2.186249942E-2
4.126548772E0,9.624999948E-4,1.649999991E-3,-2.186249942E-2
4.129049385E0,-1.374999993E-4,1.649999991E-3,-1.966249943E-2
4.131549924E0,2.062499989E-3,1.649999991E-3,-2.282499894E-2
4.134050554E0,9.624999948E-4,3.712499980E-3,-1.759999990E-2
4.136550941E0,-1.374999993E-4,1.649999991E-3,-1.539999992E-2
4.139051477E0,2.062499989E-3,2.612499986E-3,-1.429999992E-2
4.141551864E0,9.624999948E-4,1.649999991E-3,-1.003750041E-2
4.144052506E0,-1.374999993E-4,1.649999991E-3,-9.074999951E-3
4.146553046E0,2.062499989E-3,1.649999991E-3,-7.974999957E-3
4.149053431E0,9.624999948E-4,5.499999970E-4,-2.612499986E-3
4.151553968E0,3.162499983E-3,1.649999991E-3,-3.712499980E-3
4.154054612E0,-1.374999993E-4,3.712499980E-3,5.499999970E-4
4.156554999E0,-2.199999988E-3,5.499999970E-4,5.499999970E-4
4.159055612E0,-1.374999993E-4,5.499999970E-4,1.649999991E-3
4.161556152E0,-1.374999993E-4,-5.499999970E-4,3.712499980E-3
4.164056766E0,-1.099999994E-3,1.649999991E-3,6.874999963E-3
4.166557076E0,-1.374999993E-4,-5.499999970E-4,5.912499968E-3
4.169057689E0,-1.374999993E-4,5.499999970E-4,7.974999957E-3
4.171558076E0,-2.199999988E-3,5.499999970E-4,6.874999963E-3
4.174058673E0,-1.099999994E-3,-5.499999970E-4,7.974999957E-3
4.176559213E0,-1.099999994E-3,-1.649999991E-3,7.974999957E-3
4.179059598E0,-1.374999993E-4,-5.499999970E-4,9.074999951E-3
4.181560134E0,-2.199999988E-3,-5.499999970E-4,9.074999951E-3
4.184060731E0,-1.099999994E-3,5.499999970E-4,7.974999957E-3
4.186561117E0,-1.099999994E-3,-5.499999970E-4,1.223750040E-2
4.189061654E0,-3.299999982E-3,-1.649999991E-3,1.113750041E-2
4.191562041E0,-1.374999993E-4,-5.499999970E-4,1.223750040E-2
4.194062639E0,-1.374999993E-4,5.499999970E-4,1.017499994E-2
4.196563179E0,-2.199999988E-3,1.649999991E-3,1.223750040E-2
4.199063564E0,-1.099999994E-3,5.499999970E-4,1.017499994E-2
4.201564177E0,-2.199999988E-3,1.649999991E-3,1.113750041E-2
4.204064487E0,-1.099999994E-3,-5.499999970E-4,9.074999951E-3
4.206565092E0,-1.099999994E-3,-5.499999970E-4,9.074999951E-3
4.209065630E0,-2.199999988E-3,-5.499999970E-4,6.874999963E-3
4.211566245E0,9.624999948E-4,-1.649999991E-3,9.074999951E-3
4.214066632E0,-1.099999994E-3,-5.499999970E-4,1.017499994E-2
4.216567254E0,-1.099999994E-3,5.499999970E-4,7.974999957E-3
4.219067564E0,-1.099999994E-3,-5.499999970E-4,7.974999957E-3
4.221568178E0,-1.374999993E-4,5.499999970E-4,7.974999957E-3
4.224068716E0,-1.099999994E-3,5.499999970E-4,1.017499994E-2
4.226569307E0,-1.374999993E-4,5.499999970E-4,9.074999951E-3
4.229069694E0,-1.374999993E-4,5.499999970E-4,7.974999957E-3
4.231570230E0,9.624999948E-4,1.649999991E-3,1.017499994E-2
4.234070617E0,-1.374999993E-4,5.499999970E-4,5.912499968E-3
4.236571221E0,9.624999948E-4,1.649999991E-3,6.874999963E-3
4.239071762E0,-1.374999993E-4,5.499999970E-4,7.974999957E-3
4.241572375E0,-1.374999993E-4,-5.499999970E-4,6.874999963E-3
4.244072685E0,-1.374999993E-4,5.499999970E-4,4.812499974E-3
4.246573288E0,9.624999948E-4,5.499999970E-4,4.812499974E-3
4.249073675E0,-1.374999993E-4,5.499999970E-4,3.712499980E-3
4.251574211E0,-1.374999993E-4,1.649999991E-3,3.712499980E-3
4.254074827E0,2.062499989E-3,1.649999991E-3,1.649999991E-3
4.256575214E0,9.624999948E-4,-5.499999970E-4,1.649999991E-3
4.259075745E0,-1.374999993E-4,5.499999970E-4,5.499999970E-4
4.261576360E0,9.624999948E-4,5.499999970E-4,1.649999991E-3
4.264076747E0,9.624999948E-4,5.499999970E-4,1.649999991E-3
4.266577283E0,-1.099999994E-3,1.649999991E-3,2.612499986E-3
4.269077923E0,-1.374999993E-4,1.649999991E-3,1.649999991E-3
4.271578309E0,-1.099999994E-3,1.649999991E-3,5.499999970E-4
4.274078846E0,9.624999948E-4,1.649999991E-3,2.612499986E-3
4.276579233E0,-1.374999993E-4,-5.499999970E-4,2.612499986E-3
4.279079846E0,-1.374999993E-4,5.499999970E-4,2.612499986E-3
4.281580386E0,9.624999948E-4,1.649999991E-3,3.712499980E-3
4.284080771E0,-1.374999993E-4,2.612499986E-3,2.612499986E-3
4.286581384E0,9.624999948E-4,5.499999970E-4,2.612499986E-3
4.289081930E0,-1.374999993E-4,5.499999970E-4,2.612499986E-3
4.291582315E0,-1.374999993E-4,5.499999970E-4,2.612499986E-3
4.294082928E0,-1.374999993E-4,5.499999970E-4,1.649999991E-3
4.296583468E0,-1.374999993E-4,5.499999970E-4,5.499999970E-4
4.299083848E0,-1.099999994E-3,5.499999970E-4,-5.499999970E-4
4.301584384E0,-1.374999993E-4,5.499999970E-4,-1.649999991E-3
4.304085000E0,9.624999948E-4,5.499999970E-4,-2.612499986E-3
4.306585386E0,-1.099999994E-3,-5.499999970E-4,-4.812499974E-3
4.309085971E0,-1.099999994E-3,1.649999991E-3,-5.774999969E-3
4.311586511E0,-1.374999993E-4,1.649999991E-3,-4.812499974E-3
4.314086896E0,9.624999948E-4,5.499999970E-4,-7.974999957E-3
4.316587509E0,9.624999948E-4,5.499999970E-4,-9.074999951E-3
4.319087819E0,-1.374999993E-4,1.649999991E-3,-7.974999957E-3
4.321588418E0,-1.374999993E-4,1.649999991E-3,-1.003750041E-2
4.324088957E0,-1.374999993E-4,5.499999970E-4,-1.113750041E-2
4.326589344E0,-1.374999993E-4,1.649999991E-3,-1.223750040E-2
4.329089957E0,9.624999948E-4,1.649999991E-3,-1.113750041E-2
4.331590497E0,-1.374999993E-4,1.649999991E-3,-1.429999992E-2
4.334090882E0,-1.374999993E-4,1.649999991E-3,-1.333750039E-2
4.336591495E0,-1.374999993E-4,5.499999970E-4,-1.429999992E-2
4.339092036E0,-1.374999993E-4,1.649999991E-3,-1.539999992E-2
4.341592424E0,9.624999948E-4,1.649999991E-3,-1.539999992E-2
4.344092961E0,-1.374999993E-4,1.649999991E-3,-1.649999991E-2
4.346593576E0,2.062499989E-3,5.499999970E-4,-1.856249943E-2
4.349093963E0,-1.099999994E-3,-5.499999970E-4,-1.759999990E-2
4.351594499E0,2.062499989E-3,5.499999970E-4,-1.856249943E-2
4.354095130E0,2.062499989E-3,1.649999991E-3,-1.966249943E-2
4.356595516E0,2.062499989E-3,1.649999991E-3,-1.759999990E-2
4.359096053E0,-1.374999993E-4,1.649999991E-3,-1.856249943E-2
4.361596668E0,9.624999948E-4,1.649999991E-3,-1.539999992E-2
4.364097089E0,9.624999948E-4,1.649999991E-3,-1.539999992E-2
4.366597625E0,9.624999948E-4,1.649999991E-3,-1.649999991E-2
4.369098241E0,9.624999948E-4,3.712499980E-3,-1.649999991E-2
4.371598627E0,9.624999948E-4,1.649999991E-3,-1.429999992E-2
4.374099173E0,-1.374999993E-4,3.712499980E-3,-1.333750039E-2
4.376599559E0,2.062499989E-3,5.499999970E-4,-1.223750040E-2
4.379100173E0,-1.374999993E-4,1.649999991E-3,-1.223750040E-2
4.381600713E0,9.624999948E-4,2.612499986E-3,-1.003750041E-2
4.384101098E0,9.624999948E-4,3.712499980E-3,-9.074999951E-3
4.386601634E0,3.162499983E-3,5.499999970E-4,-6.874999963E-3
4.389102250E0,9.624999948E-4,1.649999991E-3,-4.812499974E-3
4.391602636E0,9.624999948E-4,1.649999991E-3,-5.774999969E-3
4.394103250E0,9.624999948E-4,1.649999991E-3,-2.612499986E-3
4.396603829E0,-1.374999993E-4,1.649999991E-3,1.649999991E-3
4.399104214E0,9.624999948E-4,1.649999991E-3,2.612499986E-3
4.401604750E0,-1.374999993E-4,5.499999970E-4,2.612499986E-3
4.404105366E0,2.062499989E-3,1.649999991E-3,3.712499980E-3
4.406605761E0,-1.374999993E-4,1.649999991E-3,4.812499974E-3
4.409106375E0,-1.374999993E-4,1.649999991E-3,4.812499974E-3
4.411606684E0,-1.374999993E-4,1.649999991E-3,3.712499980E-3
4.414107298E0,-1.374999993E-4,5.499999970E-4,5.912499968E-3
4.416607860E0,9.624999948E-4,1.649999991E-3,3.712499980E-3
4.419108247E0,-1.374999993E-4,2.612499986E-3,4.812499974E-3
4.421608860E0,-1.099999994E-3,-5.499999970E-4,2.612499986E-3
4.424109401E0,-1.374999993E-4,3.712499980E-3,5.499999970E-4
4.426609790E0,-1.374999993E-4,1.649999991E-3,-1.649999991E-3
4.429110404E0,-1.374999993E-4,1.649999991E-3,-3.712499980E-3
4.431610944E0,-1.374999993E-4,2.612499986E-3,-1.649999991E-3
4.434111286E0,-1.374999993E-4,2.612499986E-3,-6.874999963E-3
4.436611899E0,-1.374999993E-4,1.649999991E-3,-5.774999969E-3
4.439112440E0,-1.374999993E-4,5.499999970E-4,-5.774999969E-3
4.441612824E0,-1.374999993E-4,5.499999970E-4,-6.874999963E-3
4.444113361E0,-1.374999993E-4,1.649999991E-3,-6.874999963E-3
4.446613961E0,-1.099999994E-3,2.612499986E-3,-6.874999963E-3
4.449114348E0,9.624999948E-4,1.649999991E-3,-6.874999963E-3
4.451614884E0,-1.374999993E-4,5.499999970E-4,-6.874999963E-3
4.454115271E0,-1.374999993E-4,1.649999991E-3,-9.074999951E-3
4.456615875E0,-1.374999993E-4,2.612499986E-3,-9.074999951E-3
4.459116416E0,9.624999948E-4,1.649999991E-3,-1.003750041E-2
4.461617029E0,9.624999948E-4,1.649999991E-3,-9.074999951E-3
4.464117339E0,9.624999948E-4,3.712499980E-3,-1.003750041E-2
4.466617952E0,-2.199999988E-3,1.649999991E-3,-1.333750039E-2
4.469118568E0,9.624999948E-4,2.612499986E-3,-1.223750040E-2
4.471618954E0,-1.099999994E-3,3.712499980E-3,-1.429999992E-2
4.474119491E0,9.624999948E-4,5.499999970E-4,-1.539999992E-2
4.476620110E0,2.062499989E-3,2.612499986E-3,-1.539999992E-2
4.479120420E0,9.624999948E-4,1.649999991E-3,-1.759999990E-2
4.481621033E0,2.062499989E-3,3.712499980E-3,-1.856249943E-2
4.484121420E0,9.624999948E-4,3.712499980E-3,-1.966249943E-2
4.486622033E0,9.624999948E-4,1.649999991E-3,-2.186249942E-2
4.489122560E0,9.624999948E-4,3.712499980E-3,-2.282499894E-2
4.491622944E0,2.062499989E-3,2.612499986E-3,-2.392499894E-2
4.494123481E0,-1.099999994E-3,4.812499974E-3,-2.392499894E-2
4.496623867E0,-1.374999993E-4,2.612499986E-3,-2.818750031E-2
4.499124486E0,2.062499989E-3,3.712499980E-3,-2.708750032E-2
4.501625026E0,-1.374999993E-4,4.812499974E-3,-2.928750031E-2
4.504125411E0,9.624999948E-4,4.812499974E-3,-2.928750031E-2
4.506626024E0,-1.374999993E-4,3.712499980E-3,-3.038750030E-2
4.509126569E0,2.062499989E-3,4.812499974E-3,-3.244999796E-2
4.511626953E0,2.062499989E-3,4.812499974E-3,-3.244999796E-2
4.514127567E0,9.624999948E-4,4.812499974E-3,-3.244999796E-2
4.516628107E0,9.624999948E-4,2.612499986E-3,-3.451250121E-2
4.519128468E0,9.624999948E-4,4.812499974E-3,-3.451250121E-2
4.521629081E0,2.062499989E-3,3.712499980E-3,-3.355000168E-2
4.524129622E0,-1.374999993E-4,2.612499986E-3,-3.355000168E-2
4.526630006E0,-1.374999993E-4,3.712499980E-3,-3.135000169E-2
4.529130602E0,9.624999948E-4,2.612499986E-3,-3.135000169E-2
4.531631142E0,-1.374999993E-4,2.612499986E-3,-3.038750030E-2
4.534131527E0,9.624999948E-4,4.812499974E-3,-2.818750031E-2
4.536632063E0,9.624999948E-4,2.612499986E-3,-2.708750032E-2
4.539132655E0,2.062499989E-3,3.712499980E-3,-2.392499894E-2
4.541633041E0,9.624999948E-4,2.612499986E-3,-2.282499894E-2
4.544133578E0,9.624999948E-4,3.712499980E-3,-2.282499894E-2
4.546634193E0,2.062499989E-3,4.812499974E-3,-2.282499894E-2
4.549134580E0,9.624999948E-4,4.812499974E-3,-2.282499894E-2
4.551635121E0,9.624999948E-4,3.712499980E-3,-2.282499894E-2
4.554135508E0,9.624999948E-4,3.712499980E-3,-2.392499894E-2
4.556636121E0,-1.099999994E-3,4.812499974E-3,-2.392499894E-2
4.559136662E0,2.062499989E-3,3.712499980E-3,-2.502499893E-2
4.561637251E0,9.624999948E-4,3.712499980E-3,-2.708750032E-2
4.564137561E0,9.624999948E-4,3.712499980E-3,-2.708750032E-2
4.566638174E0,-1.374999993E-4,3.712499980E-3,-2.818750031E-2
4.569138561E0,9.624999948E-4,4.812499974E-3,-2.708750032E-2
4.571639106E0,2.062499989E-3,3.712499980E-3,-2.818750031E-2
4.574139722E0,-1.374999993E-4,2.612499986E-3,-2.708750032E-2
4.576640108E0,9.624999948E-4,2.612499986E-3,-2.392499894E-2
4.579140645E0,-1.374999993E-4,5.499999970E-4,-2.612499893E-2
4.581641251E0,2.062499989E-3,2.612499986E-3,-2.612499893E-2
4.584141638E0,9.624999948E-4,3.712499980E-3,-2.502499893E-2
4.586642174E0,2.062499989E-3,2.612499986E-3,-2.282499894E-2
4.589142790E0,-1.374999993E-4,5.499999970E-4,-2.186249942E-2
4.591643161E0,9.624999948E-4,2.612499986E-3,-2.186249942E-2
4.594143698E0,-1.374999993E-4,3.712499980E-3,-1.856249943E-2
4.596644084E0,-1.374999993E-4,2.612499986E-3,-2.076249942E-2
4.599144698E0,-2.199999988E-3,3.712499980E-3,-1.759999990E-2
4.601645238E0,-1.374999993E-4,1.649999991E-3,-1.539999992E-2
4.604145662E0,-1.374999993E-4,3.712499980E-3,-1.539999992E-2
4.606646275E0,2.062499989E-3,2.612499986E-3,-1.333750039E-2
4.609146816E0,-1.099999994E-3,3.712499980E-3,-1.223750040E-2
4.611647200E0,-1.374999993E-4,2.612499986E-3,-1.003750041E-2
4.614147828E0,-1.374999993E-4,1.649999991E-3,-1.113750041E-2
4.616648137E0,-2.199999988E-3,1.649999991E-3,-7.974999957E-3
4.619148751E0,-1.099999994E-3,1.649999991E-3,-5.774999969E-3
4.621649289E0,-2.199999988E-3,2.612499986E-3,-5.774999969E-3
4.624149910E0,9.624999948E-4,2.612499986E-3,-9.074999951E-3
4.626650296E0,-1.099999994E-3,2.612499986E-3,-5.774999969E-3
4.629150910E0,-1.099999994E-3,5.499999970E-4,-4.812499974E-3
4.631651219E0,-1.099999994E-3,1.649999991E-3,-7.974999957E-3
4.634151833E0,-2.199999988E-3,1.649999991E-3,-9.074999951E-3
4.636652356E0,-1.099999994E-3,2.612499986E-3,-9.074999951E-3
4.639152972E0,-1.099999994E-3,3.712499980E-3,-1.333750039E-2
4.641653358E0,-1.374999993E-4,5.499999970E-4,-1.223750040E-2
4.644153895E0,-3.299999982E-3,1.649999991E-3,-1.429999992E-2
4.646654281E0,-2.199999988E-3,1.649999991E-3,-1.223750040E-2
4.649154895E0,-1.099999994E-3,5.499999970E-4,-1.333750039E-2
4.651655435E0,-1.099999994E-3,2.612499986E-3,-1.429999992E-2
4.654155820E0,-2.199999988E-3,1.649999991E-3,-1.649999991E-2
4.656656376E0,-1.099999994E-3,1.649999991E-3,-1.429999992E-2
4.659156992E0,-1.374999993E-4,1.649999991E-3,-1.429999992E-2
4.661657378E0,-1.099999994E-3,2.612499986E-3,-1.333750039E-2
4.664157915E0,-1.099999994E-3,2.612499986E-3,-1.333750039E-2
4.666658539E0,-1.374999993E-4,2.612499986E-3,-1.113750041E-2
4.669158926E0,-1.374999993E-4,2.612499986E-3,-1.223750040E-2
4.671659462E0,-2.199999988E-3,1.649999991E-3,-1.113750041E-2
4.674160078E0,-1.374999993E-4,1.649999991E-3,-1.003750041E-2
4.676660458E0,-1.374999993E-4,1.649999991E-3,-1.003750041E-2
4.679160995E0,-1.374999993E-4,1.649999991E-3,-1.113750041E-2
4.681661610E0,-1.099999994E-3,1.649999991E-3,-9.074999951E-3
4.684161920E0,-1.099999994E-3,-5.499999970E-4,-9.074999951E-3
4.686662548E0,-1.099999994E-3,5.499999970E-4,-9.074999951E-3
4.689162935E0,-1.099999994E-3,1.649999991E-3,-1.113750041E-2
4.691663548E0,-1.099999994E-3,5.499999970E-4,-1.003750041E-2
4.694164089E0,-2.199999988E-3,1.649999991E-3,-1.003750041E-2
4.696664473E0,-3.299999982E-3,1.649999991E-3,-1.223750040E-2
4.699165010E0,-1.374999993E-4,1.649999991E-3,-1.333750039E-2
4.701665625E0,-1.099999994E-3,2.612499986E-3,-1.333750039E-2
4.704166012E0,-1.374999993E-4,1.649999991E-3,-1.429999992E-2
4.706666625E0,-1.374999993E-4,1.649999991E-3,-1.539999992E-2
4.709167180E0,-1.099999994E-3,1.649999991E-3,-1.649999991E-2
4.711667564E0,-1.374999993E-4,1.649999991E-3,-2.076249942E-2
4.714168101E0,9.624999948E-4,5.499999970E-4,-1.966249943E-2
4.716668716E0,9.624999948E-4,1.649999991E-3,-1.966249943E-2
4.719169098E0,-1.099999994E-3,1.649999991E-3,-2.186249942E-2
4.721669711E0,-1.374999993E-4,5.499999970E-4,-2.186249942E-2
4.724170021E0,9.624999948E-4,1.649999991E-3,-2.076249942E-2
4.726670634E0,-1.374999993E-4,2.612499986E-3,-2.186249942E-2
4.729171168E0,9.624999948E-4,1.649999991E-3,-2.076249942E-2
4.731671554E0,9.624999948E-4,2.612499986E-3,-2.076249942E-2
4.734172168E0,-1.374999993E-4,1.649999991E-3,-2.282499894E-2
4.736672708E0,-1.374999993E-4,2.612499986E-3,-1.759999990E-2
4.739173093E0,9.624999948E-4,1.649999991E-3,-1.759999990E-2
4.741673697E0,-1.374999993E-4,2.612499986E-3,-1.759999990E-2
4.744174238E0,9.624999948E-4,1.649999991E-3,-1.649999991E-2
4.746674622E0,9.624999948E-4,1.649999991E-3,-1.649999991E-2
4.749175159E0,9.624999948E-4,2.612499986E-3,-1.539999992E-2
4.751675779E0,9.624999948E-4,1.649999991E-3,-1.429999992E-2
4.754176166E0,9.624999948E-4,3.712499980E-3,-1.429999992E-2
4.756676702E0,-1.374999993E-4,5.499999970E-4,-1.333750039E-2
4.759177318E0,-1.099999994E-3,5.499999970E-4,-1.333750039E-2
4.761677723E0,9.624999948E-4,3.712499980E-3,-1.429999992E-2
4.764178260E0,9.624999948E-4,3.712499980E-3,-1.539999992E-2
4.766678875E0,-1.099999994E-3,5.499999970E-4,-1.759999990E-2
4.769179262E0,9.624999948E-4,1.649999991E-3,-1.759999990E-2
4.771679798E0,9.624999948E-4,5.499999970E-4,-1.856249943E-2
4.774180423E0,-1.099999994E-3,2.612499986E-3,-1.759999990E-2
4.776680732E0,9.624999948E-4,1.649999991E-3,-2.076249942E-2
4.779181346E0,2.062499989E-3,1.649999991E-3,-1.856249943E-2
4.781681732E0,9.624999948E-4,2.612499986E-3,-2.076249942E-2
4.784182346E0,9.624999948E-4,2.612499986E-3,-1.856249943E-2
4.786682886E0,-1.374999993E-4,1.649999991E-3,-1.966249943E-2
4.789183271E0,-1.099999994E-3,1.649999991E-3,-1.966249943E-2
4.791683884E0,-1.374999993E-4,1.649999991E-3,-1.759999990E-2
4.794184416E0,9.624999948E-4,1.649999991E-3,-1.856249943E-2
4.796684800E0,9.624999948E-4,1.649999991E-3,-1.856249943E-2
4.799185337E0,-1.374999993E-4,1.649999991E-3,-1.649999991E-2
4.801685952E0,-1.374999993E-4,5.499999970E-4,-1.649999991E-2
4.804186339E0,-1.099999994E-3,2.612499986E-3,-1.649999991E-2
4.806686879E0,9.624999948E-4,1.649999991E-3,-1.429999992E-2
4.809187266E0,-1.374999993E-4,1.649999991E-3,-1.333750039E-2
4.811687879E0,9.624999948E-4,5.499999970E-4,-1.223750040E-2
4.814188420E0,-1.374999993E-4,5.499999970E-4,-1.333750039E-2
4.816688828E0,9.624999948E-4,1.649999991E-3,-1.429999992E-2
4.819189442E0,-1.374999993E-4,5.499999970E-4,-1.113750041E-2
4.821689982E0,9.624999948E-4,5.499999970E-4,-1.003750041E-2
4.824190367E0,-1.374999993E-4,5.499999970E-4,-9.074999951E-3
4.826690980E0,-1.374999993E-4,2.612499986E-3,-9.074999951E-3
4.829191507E0,-1.374999993E-4,2.612499986E-3,-7.974999957E-3
4.831691891E0,2.062499989E-3,2.612499986E-3,-9.074999951E-3
4.834192505E0,-1.374999993E-4,1.649999991E-3,-6.874999963E-3
4.836693045E0,9.624999948E-4,1.649999991E-3,-6.874999963E-3
4.839193430E0,2.062499989E-3,2.612499986E-3,-6.874999963E-3
4.841693966E0,9.624999948E-4,1.649999991E-3,-7.974999957E-3
4.844194582E0,9.624999948E-4,1.649999991E-3,-6.874999963E-3
4.846694968E0,9.624999948E-4,1.649999991E-3,-5.774999969E-3
4.849195515E0,9.624999948E-4,1.649999991E-3,-9.074999951E-3
4.851695901E0,9.624999948E-4,1.649999991E-3,-7.974999957E-3
4.854196515E0,-1.374999993E-4,3.712499980E-3,-1.003750041E-2
4.856697055E0,9.624999948E-4,3.712499980E-3,-9.074999951E-3
4.859197669E0,-1.374999993E-4,2.612499986E-3,-1.003750041E-2
4.861698065E0,2.062499989E-3,1.649999991E-3,-1.113750041E-2
4.864198602E0,-1.374999993E-4,3.712499980E-3,-1.113750041E-2
4.866698988E0,2.062499989E-3,1.649999991E-3,-9.074999951E-3
4.869199602E0,9.624999948E-4,3.712499980E-3,-1.113750041E-2
4.871700142E0,-1.374999993E-4,2.612499986E-3,-1.113750041E-2
4.874200756E0,2.062499989E-3,3.712499980E-3,-1.113750041E-2
4.876701065E0,9.624999948E-4,1.649999991E-3,-1.113750041E-2
4.879201679E0,9.624999948E-4,3.712499980E-3,-1.003750041E-2
4.881702065E0,2.062499989E-3,2.612499986E-3,-1.113750041E-2
4.884202679E0,9.624999948E-4,5.499999970E-4,-1.003750041E-2
4.886703219E0,9.624999948E-4,1.649999991E-3,-1.003750041E-2
4.889203604E0,9.624999948E-4,2.612499986E-3,-1.003750041E-2
4.891704140E0,9.624999948E-4,1.649999991E-3,-9.074999951E-3
4.894204756E0,9.624999948E-4,1.649999991E-3,-1.113750041E-2
4.896705142E0,2.062499989E-3,1.649999991E-3,-1.003750041E-2
4.899205679E0,2.062499989E-3,5.499999970E-4,-1.113750041E-2
4.901706065E0,9.624999948E-4,1.649999991E-3,-1.113750041E-2
4.904206697E0,9.624999948E-4,5.499999970E-4,-1.003750041E-2
4.906707237E0,2.062499989E-3,2.612499986E-3,-1.113750041E-2
4.909207622E0,2.062499989E-3,3.712499980E-3,-1.113750041E-2
4.911708235E0,3.162499983E-3,5.499999970E-4,-1.113750041E-2
4.914208776E0,-1.374999993E-4,5.499999970E-4,-1.113750041E-2
4.916709160E0,2.062499989E-3,3.712499980E-3,-1.113750041E-2
4.919209774E0,-1.374999993E-4,2.612499986E-3,-1.333750039E-2
4.921710314E0,9.624999948E-4,2.612499986E-3,-1.333750039E-2
4.924210681E0,9.624999948E-4,1.649999991E-3,-1.333750039E-2
4.926711294E0,2.062499989E-3,1.649999991E-3,-1.759999990E-2
4.929211604E0,2.062499989E-3,1.649999991E-3,-1.539999992E-2
4.931712217E0,2.062499989E-3,1.649999991E-3,-1.649999991E-2
4.934212756E0,2.062499989E-3,1.649999991E-3,-2.076249942E-2
4.936713357E0,3.162499983E-3,2.612499986E-3,-1.966249943E-2
4.939213744E0,3.162499983E-3,2.612499986E-3,-2.076249942E-2
4.941714280E0,2.062499989E-3,2.612499986E-3,-2.076249942E-2
4.944214896E0,3.162499983E-3,1.649999991E-3,-2.282499894E-2
4.946715248E0,2.062499989E-3,3.712499980E-3,-2.282499894E-2
4.949215785E0,9.624999948E-4,1.649999991E-3,-2.392499894E-2
4.951716400E0,4.124999978E-3,2.612499986E-3,-2.392499894E-2
4.954216710E0,2.062499989E-3,1.649999991E-3,-2.186249942E-2
4.956717323E0,2.062499989E-3,3.712499980E-3,-2.502499893E-2
4.959217705E0,9.624999948E-4,1.649999991E-3,-2.392499894E-2
4.961718318E0,2.062499989E-3,2.612499986E-3,-2.282499894E-2
4.964218859E0,2.062499989E-3,2.612499986E-3,-2.392499894E-2
4.966719472E0,9.624999948E-4,4.812499974E-3,-2.392499894E-2
4.969219787E0,9.624999948E-4,1.649999991E-3,-2.282499894E-2
4.971720400E0,3.162499983E-3,3.712499980E-3,-2.392499894E-2
4.974220787E0,2.062499989E-3,2.612499986E-3,-2.392499894E-2
4.976721323E0,2.062499989E-3,2.612499986E-3,-2.186249942E-2
4.979221925E0,9.624999948E-4,2.612499986E-3,-2.392499894E-2
4.981722311E0,3.162499983E-3,3.712499980E-3,-2.282499894E-2
4.984222848E0,3.162499983E-3,2.612499986E-3,-2.282499894E-2
4.986723463E0,2.062499989E-3,1.649999991E-3,-2.282499894E-2
4.989223850E0,-1.374999993E-4,2.612499986E-3,-2.186249942E-2
4.991724371E0,9.624999948E-4,3.712499980E-3,-2.282499894E-2
4.994224758E0,2.062499989E-3,2.612499986E-3,-2.282499894E-2
4.996725371E0,9.624999948E-4,3.712499980E-3,-2.502499893E-2
4.999225912E0,2.062499989E-3,3.712499980E-3,-2.502499893E-2
5.001726296E0,2.062499989E-3,3.712499980E-3,-2.392499894E-2
5.004226910E0,9.624999948E-4,3.712499980E-3,-2.502499893E-2
5.006727450E0,2.062499989E-3,2.612499986E-3,-2.392499894E-2
5.009227835E0,2.062499989E-3,1.649999991E-3,-2.502499893E-2
5.011728429E0,2.062499989E-3,2.612499986E-3,-2.502499893E-2
5.014228970E0,9.624999948E-4,3.712499980E-3,-2.612499893E-2
5.016729354E0,2.062499989E-3,2.612499986E-3,-2.502499893E-2
5.019229968E0,9.624999948E-4,3.712499980E-3,-2.392499894E-2
5.021730493E0,9.624999948E-4,2.612499986E-3,-2.392499894E-2
5.024230878E0,3.162499983E-3,2.612499986E-3,-2.282499894E-2
5.026731414E0,9.624999948E-4,1.649999991E-3,-2.186249942E-2
5.029232030E0,-1.099999994E-3,2.612499986E-3,-2.076249942E-2
5.031732416E0,9.624999948E-4,2.612499986E-3,-2.186249942E-2
5.034232953E0,2.062499989E-3,1.649999991E-3,-1.759999990E-2
5.036733568E0,9.624999948E-4,2.612499986E-3,-1.856249943E-2
5.039233955E0,9.624999948E-4,3.712499980E-3,-1.759999990E-2
5.041734491E0,3.162499983E-3,1.649999991E-3,-1.539999992E-2
5.044234868E0,-1.374999993E-4,2.612499986E-3,-1.539999992E-2
5.046735404E0,9.624999948E-4,2.612499986E-3,-1.429999992E-2
5.049236020E0,9.624999948E-4,3.712499980E-3,-1.429999992E-2
