"Time (s)","Gyroscope x (rad/s)","Gyroscope y (rad/s)","Gyroscope z (rad/s)"
9.473908000E-3,2.663161140E-3,7.456851192E-3,7.989482954E-3
1.147355600E-2,2.663161140E-3,7.456851192E-3,7.989482954E-3
1.347355600E-2,2.663161140E-3,7.456851192E-3,7.989482954E-3
1.547324400E-2,2.663161140E-3,7.456851192E-3,7.989482954E-3
1.747355600E-2,2.663161140E-3,7.456851192E-3,7.989482954E-3
1.947347800E-2,2.663161140E-3,7.456851192E-3,7.989482954E-3
2.147340000E-2,2.663161140E-3,7.456851192E-3,7.989482954E-3
2.347316600E-2,2.663161140E-3,7.456851192E-3,7.989482954E-3
2.547234500E-2,2.663161140E-3,7.456851192E-3,7.989482954E-3
2.747140800E-2,2.663161140E-3,7.456851192E-3,7.989482954E-3
2.947058700E-2,2.663161140E-3,7.456851192E-3,7.989482954E-3
3.147082200E-2,2.663161140E-3,7.456851192E-3,7.989482954E-3
3.347113400E-2,2.663161140E-3,7.456851192E-3,7.989482954E-3
3.547090000E-2,2.663161140E-3,7.456851192E-3,7.989482954E-3
3.747152500E-2,2.663161140E-3,7.456851192E-3,7.989482954E-3
3.947246200E-2,2.663161140E-3,7.456851192E-3,7.989482954E-3
4.147297000E-2,4.261057824E-3,5.858954508E-3,-1.065264456E-3
4.347367300E-2,3.728425596E-3,7.456851192E-3,-1.597896684E-3
4.547425900E-2,2.130528912E-3,7.456851192E-3,-1.065264456E-3
4.747496200E-2,4.793690052E-3,7.989482954E-3,-1.065264456E-3
4.947609500E-2,4.793690052E-3,7.456851192E-3,-1.065264456E-3
5.147664200E-2,1.597896684E-3,4.261057824E-3,-5.326322280E-4
5.347699400E-2,1.597896684E-3,3.728425596E-3,-2.130528912E-3
5.547769700E-2,1.597896684E-3,5.326322280E-4,-5.326322280E-4
5.747867300E-2,2.130528912E-3,-5.326322280E-4,-5.326322280E-4
5.947949400E-2,4.261057824E-3,-2.130528912E-3,2.130528912E-3
6.147968900E-2,5.326322280E-4,-5.858954508E-3,0.000000000E0
6.347914200E-2,2.663161140E-3,-6.391586736E-3,-1.065264456E-3
6.547933700E-2,4.261057824E-3,-6.924218964E-3,-1.597896684E-3
6.748004100E-2,3.728425596E-3,-7.989482954E-3,-2.130528912E-3
6.948043100E-2,2.130528912E-3,-6.391586736E-3,-2.663161140E-3
7.148066600E-2,3.728425596E-3,-6.924218964E-3,-5.326322280E-4
7.348152500E-2,3.728425596E-3,-4.793690052E-3,-5.326322280E-4
7.548133000E-2,2.130528912E-3,-3.195793368E-3,-2.130528912E-3
7.748043100E-2,2.130528912E-3,-3.195793368E-3,0.000000000E0
7.947996200E-2,1.065264456E-3,-1.065264456E-3,-2.663161140E-3
8.147918100E-2,2.130528912E-3,0.000000000E0,-1.597896684E-3
8.347894700E-2,5.326322280E-4,1.065264456E-3,-2.663161140E-3
8.547871200E-2,2.130528912E-3,2.663161140E-3,-1.065264456E-3
8.747886900E-2,2.130528912E-3,3.195793368E-3,-5.326322280E-4
8.947824400E-2,3.195793368E-3,6.391586736E-3,-1.065264456E-3
9.147820500E-2,1.597896684E-3,4.793690052E-3,-2.130528912E-3
9.347836100E-2,3.195793368E-3,4.261057824E-3,-1.597896684E-3
9.547816600E-2,4.261057824E-3,4.793690052E-3,-2.130528912E-3
9.747843900E-2,2.663161140E-3,3.728425596E-3,-1.065264456E-3
9.947883000E-2,3.728425596E-3,2.663161140E-3,-1.597896684E-3
1.014796110E-1,5.326322280E-4,3.195793368E-3,-1.597896684E-3
1.034798450E-1,3.195793368E-3,1.065264456E-3,-2.663161140E-3
1.054803140E-1,2.130528912E-3,-5.326322280E-4,-3.728425596E-3
1.074792980E-1,3.728425596E-3,-2.663161140E-3,-1.597896684E-3
1.094778920E-1,2.130528912E-3,-3.728425596E-3,-3.728425596E-3
1.114779310E-1,4.261057824E-3,-3.728425596E-3,-4.793690052E-3
1.134776580E-1,1.597896684E-3,-3.728425596E-3,-2.130528912E-3
1.154768370E-1,1.065264456E-3,-4.793690052E-3,-4.793690052E-3
1.174769160E-1,2.663161140E-3,-4.261057824E-3,-5.326322280E-3
1.194770330E-1,2.663161140E-3,-2.130528912E-3,-5.326322280E-3
1.214756660E-1,2.130528912E-3,-1.065264456E-3,-5.858954508E-3
1.234748060E-1,3.728425596E-3,-2.130528912E-3,-4.261057824E-3
1.254730090E-1,5.326322280E-3,5.326322280E-4,-4.793690052E-3
1.274716420E-1,4.261057824E-3,2.130528912E-3,-4.793690052E-3
1.294701190E-1,1.597896684E-3,1.065264456E-3,-4.261057824E-3
1.314690640E-1,1.597896684E-3,3.728425596E-3,-5.326322280E-3
1.334678140E-1,5.326322280E-3,3.728425596E-3,-4.793690052E-3
1.354677750E-1,1.597896684E-3,4.793690052E-3,-5.858954508E-3
1.374683610E-1,2.663161140E-3,4.793690052E-3,-5.326322280E-3
1.394681660E-1,2.130528912E-3,3.728425596E-3,-4.261057824E-3
1.414685950E-1,3.728425596E-3,1.065264456E-3,-5.858954508E-3
1.434683220E-1,2.130528912E-3,2.130528912E-3,-6.924218964E-3
1.454681660E-1,5.326322280E-4,1.065264456E-3,-4.793690052E-3
1.474673840E-1,5.326322280E-3,-5.326322280E-4,-5.326322280E-3
1.494668770E-1,3.728425596E-3,-1.065264456E-3,-4.261057824E-3
1.514661730E-1,2.130528912E-3,-2.663161140E-3,-4.793690052E-3
1.534656270E-1,1.597896684E-3,-4.261057824E-3,-5.858954508E-3
1.554647280E-1,0.000000000E0,-5.858954508E-3,-5.326322280E-3
1.574640640E-1,1.065264456E-3,-4.261057824E-3,-5.858954508E-3
1.594638690E-1,5.326322280E-4,-3.728425596E-3,-6.924218964E-3
1.614637520E-1,3.195793368E-3,-3.728425596E-3,-6.924218964E-3
1.634634390E-1,3.195793368E-3,-2.130528912E-3,-7.456851192E-3
1.654634390E-1,2.130528912E-3,-2.663161140E-3,-6.391586736E-3
1.674634390E-1,3.195793368E-3,1.065264456E-3,-8.522115648E-3
1.694638300E-1,4.261057824E-3,1.597896684E-3,-9.054748341E-3
1.714644550E-1,2.663161140E-3,1.597896684E-3,-9.054748341E-3
1.734651580E-1,1.597896684E-3,2.663161140E-3,-1.012001187E-2
1.754649620E-1,1.065264456E-3,3.728425596E-3,-9.587380104E-3
1.774645330E-1,5.326322280E-3,4.793690052E-3,-1.065264456E-2
1.794641810E-1,1.597896684E-3,5.326322280E-3,-1.118527725E-2
1.814642980E-1,2.130528912E-3,5.326322280E-3,-1.225054078E-2
1.834643770E-1,4.261057824E-3,6.391586736E-3,-1.171790902E-2
1.854652750E-1,4.261057824E-3,3.728425596E-3,-1.225054078E-2
1.874655870E-1,2.130528912E-3,3.728425596E-3,-1.278317347E-2
1.894662120E-1,3.728425596E-3,3.195793368E-3,-1.278317347E-2
1.914675020E-1,2.663161140E-3,3.728425596E-3,-1.331580617E-2
1.934690640E-1,4.261057824E-3,2.130528912E-3,-1.331580617E-2
1.954692980E-1,2.663161140E-3,3.195793368E-3,-1.331580617E-2
1.974690640E-1,4.261057824E-3,-1.597896684E-3,-1.384843793E-2
1.994687910E-1,4.261057824E-3,-2.130528912E-3,-1.331580617E-2
2.014696500E-1,3.195793368E-3,-3.195793368E-3,-1.384843793E-2
2.034698060E-1,1.065264456E-3,-3.728425596E-3,-1.331580617E-2
2.054707050E-1,2.130528912E-3,-4.793690052E-3,-1.278317347E-2
2.074712520E-1,3.195793368E-3,-4.793690052E-3,-1.331580617E-2
2.094724230E-1,1.597896684E-3,-4.793690052E-3,-1.278317347E-2
2.114728920E-1,3.195793368E-3,-2.130528912E-3,-1.384843793E-2
2.134739470E-1,0.000000000E0,-2.663161140E-3,-1.225054078E-2
2.154756660E-1,2.663161140E-3,-2.130528912E-3,-1.384843793E-2
2.174766810E-1,3.728425596E-3,-1.597896684E-3,-1.278317347E-2
2.194777360E-1,3.195793368E-3,-1.597896684E-3,-1.118527725E-2
2.214778920E-1,5.326322280E-4,5.326322280E-4,-1.118527725E-2
2.234793370E-1,3.195793368E-3,2.130528912E-3,-1.012001187E-2
2.254814470E-1,1.065264456E-3,2.663161140E-3,-9.587380104E-3
2.274823840E-1,3.195793368E-3,2.663161140E-3,-8.522115648E-3
2.294829310E-1,2.130528912E-3,3.195793368E-3,-8.522115648E-3
2.314834390E-1,3.728425596E-3,4.261057824E-3,-8.522115648E-3
2.334840250E-1,3.195793368E-3,2.663161140E-3,-6.391586736E-3
2.354841030E-1,4.261057824E-3,1.065264456E-3,-4.261057824E-3
2.374849230E-1,2.130528912E-3,5.326322280E-4,-2.663161140E-3
2.394866420E-1,2.663161140E-3,3.195793368E-3,-1.065264456E-3
2.414878920E-1,2.663161140E-3,-5.326322280E-4,-1.065264456E-3
2.434891420E-1,1.597896684E-3,-5.326322280E-4,5.326322280E-4
2.454900410E-1,3.728425596E-3,-2.663161140E-3,3.195793368E-3
2.474905870E-1,2.130528912E-3,-3.195793368E-3,4.793690052E-3
2.494909390E-1,2.130528912E-3,-4.793690052E-3,6.391586736E-3
2.514914080E-1,1.065264456E-3,-5.326322280E-3,6.391586736E-3
2.534930090E-1,1.065264456E-3,-3.195793368E-3,9.587380104E-3
2.554940250E-1,1.597896684E-3,-4.793690052E-3,1.171790902E-2
2.574943370E-1,1.065264456E-3,-4.261057824E-3,1.331580617E-2
2.594951970E-1,1.597896684E-3,-4.793690052E-3,1.278317347E-2
2.614960560E-1,3.195793368E-3,-1.597896684E-3,1.651159860E-2
2.634968370E-1,2.663161140E-3,-2.663161140E-3,1.757686399E-2
2.654984390E-1,5.326322280E-4,-1.597896684E-3,1.757686399E-2
2.674993770E-1,2.130528912E-3,-2.130528912E-3,2.077265643E-2
2.695006660E-1,1.065264456E-3,-1.065264456E-3,2.024002373E-2
2.715028530E-1,1.597896684E-3,1.065264456E-3,2.503371425E-2
2.735048840E-1,2.130528912E-3,1.597896684E-3,2.290318534E-2
2.755064860E-1,1.597896684E-3,1.597896684E-3,2.503371425E-2
2.775071500E-1,3.195793368E-3,1.065264456E-3,2.663161233E-2
2.795090640E-1,1.065264456E-3,3.728425596E-3,2.822950855E-2
2.815106270E-1,5.326322280E-4,0.000000000E0,2.929477207E-2
2.835121890E-1,0.000000000E0,2.663161140E-3,3.089267015E-2
2.855142200E-1,3.195793368E-3,0.000000000E0,3.249056637E-2
2.875154310E-1,5.326322280E-4,2.663161140E-3,3.408846259E-2
2.895157830E-1,5.326322280E-4,2.130528912E-3,3.462109342E-2
2.915160170E-1,1.597896684E-3,-5.326322280E-4,3.568635881E-2
2.935162520E-1,0.000000000E0,-5.326322280E-4,3.515372798E-2
2.955166030E-1,1.597896684E-3,-1.597896684E-3,3.728425503E-2
2.975162120E-1,5.326322280E-4,-2.663161140E-3,3.834952042E-2
2.995172280E-1,2.130528912E-3,-2.130528912E-3,3.781688958E-2
3.015184390E-1,5.326322280E-4,-3.195793368E-3,3.888215125E-2
3.035198840E-1,1.065264456E-3,-3.195793368E-3,4.048004746E-2
3.055207440E-1,2.130528912E-3,-2.130528912E-3,3.781688958E-2
3.075223840E-1,5.326322280E-4,-1.597896684E-3,3.941478580E-2
3.095241810E-1,0.000000000E0,-5.326322280E-4,3.941478580E-2
3.115246110E-1,-5.326322280E-4,-1.597896684E-3,3.888215125E-2
3.135258610E-1,2.130528912E-3,-5.326322280E-4,3.941478580E-2
3.155267590E-1,5.326322280E-4,0.000000000E0,3.675162420E-2
3.175276580E-1,2.663161140E-3,3.728425596E-3,3.675162420E-2
3.195280870E-1,1.065264456E-3,2.130528912E-3,3.781688958E-2
3.215293770E-1,1.065264456E-3,2.663161140E-3,3.675162420E-2
3.235305870E-1,-5.326322280E-4,5.326322280E-3,3.568635881E-2
3.255319160E-1,1.065264456E-3,4.793690052E-3,3.568635881E-2
3.275322670E-1,1.065264456E-3,3.195793368E-3,3.515372798E-2
3.295329310E-1,2.663161140E-3,5.326322280E-3,3.462109342E-2
3.315331660E-1,5.326322280E-4,3.195793368E-3,3.195793182E-2
3.335327750E-1,1.065264456E-3,1.597896684E-3,3.195793182E-2
3.355326190E-1,0.000000000E0,2.130528912E-3,3.142530099E-2
3.375326580E-1,2.130528912E-3,1.065264456E-3,3.089267015E-2
3.395319160E-1,1.597896684E-3,2.130528912E-3,3.036003746E-2
3.415319160E-1,1.065264456E-3,1.065264456E-3,2.769687586E-2
3.435317590E-1,1.597896684E-3,-1.597896684E-3,2.822950855E-2
3.455312120E-1,2.663161140E-3,-1.065264456E-3,2.876213938E-2
3.475307440E-1,1.597896684E-3,-2.130528912E-3,2.663161233E-2
3.495309780E-1,2.130528912E-3,-5.326322280E-4,2.663161233E-2
3.515323060E-1,-5.326322280E-4,-1.597896684E-3,2.396845073E-2
3.535336340E-1,2.130528912E-3,-2.663161140E-3,2.450108156E-2
3.555344550E-1,2.130528912E-3,-2.663161140E-3,2.183792181E-2
3.575348450E-1,2.130528912E-3,-2.130528912E-3,2.183792181E-2
3.595359000E-1,3.728425596E-3,2.130528912E-3,1.917476021E-2
3.615372670E-1,2.663161140E-3,-1.065264456E-3,1.651159860E-2
3.635381270E-1,3.195793368E-3,1.597896684E-3,1.491370238E-2
3.655394550E-1,1.597896684E-3,1.597896684E-3,1.544633508E-2
3.675403920E-1,1.065264456E-3,1.597896684E-3,1.225054078E-2
3.695419160E-1,2.663161140E-3,1.597896684E-3,1.118527725E-2
3.715431660E-1,2.130528912E-3,3.728425596E-3,8.522115648E-3
3.735441810E-1,2.663161140E-3,0.000000000E0,8.522115648E-3
3.755453530E-1,4.793690052E-3,2.130528912E-3,6.391586736E-3
3.775462520E-1,2.663161140E-3,0.000000000E0,4.261057824E-3
3.795470720E-1,2.663161140E-3,1.597896684E-3,2.663161140E-3
3.815482050E-1,1.597896684E-3,-5.326322280E-4,0.000000000E0
3.835489860E-1,3.195793368E-3,5.326322280E-4,-1.597896684E-3
3.855498840E-1,2.130528912E-3,-5.326322280E-4,-2.663161140E-3
3.875512520E-1,4.261057824E-3,-5.326322280E-4,-3.728425596E-3
3.895519160E-1,1.065264456E-3,-5.326322280E-4,-4.793690052E-3
3.915527360E-1,2.130528912E-3,-2.130528912E-3,-7.989482954E-3
3.935539470E-1,2.663161140E-3,-3.195793368E-3,-9.587380104E-3
3.955549620E-1,4.261057824E-3,-1.065264456E-3,-1.012001187E-2
3.975554700E-1,3.728425596E-3,-1.597896684E-3,-1.065264456E-2
3.995567200E-1,1.065264456E-3,-2.663161140E-3,-1.384843793E-2
4.015580480E-1,2.663161140E-3,-1.597896684E-3,-1.491370238E-2
4.035600410E-1,3.195793368E-3,-3.195793368E-3,-1.757686399E-2
4.055615640E-1,2.130528912E-3,-5.326322280E-4,-1.810949668E-2
4.075638300E-1,4.793690052E-3,-5.326322280E-4,-1.917476021E-2
4.095655090E-1,4.261057824E-3,0.000000000E0,-2.024002373E-2
4.115671110E-1,4.261057824E-3,1.597896684E-3,-2.290318534E-2
4.135686340E-1,5.326322280E-3,2.663161140E-3,-2.396845073E-2
4.155701580E-1,5.326322280E-3,1.065264456E-3,-2.556634694E-2
4.175713690E-1,2.130528912E-3,1.597896684E-3,-2.716424316E-2
4.195723060E-1,5.858954508E-3,1.597896684E-3,-2.716424316E-2
4.215732440E-1,4.793690052E-3,2.130528912E-3,-3.036003746E-2
4.235746890E-1,4.261057824E-3,2.663161140E-3,-2.982740477E-2
4.255748840E-1,4.261057824E-3,2.130528912E-3,-3.142530099E-2
4.275756660E-1,4.261057824E-3,3.195793368E-3,-3.249056637E-2
4.295768370E-1,4.793690052E-3,2.130528912E-3,-3.568635881E-2
4.315775800E-1,3.195793368E-3,1.597896684E-3,-3.621899337E-2
4.335776970E-1,3.728425596E-3,5.326322280E-4,-3.568635881E-2
4.355781270E-1,5.326322280E-3,1.065264456E-3,-3.515372798E-2
4.375793370E-1,4.261057824E-3,-1.597896684E-3,-3.834952042E-2
4.395801970E-1,5.326322280E-3,-5.326322280E-4,-3.728425503E-2
4.415806660E-1,2.663161140E-3,-2.663161140E-3,-3.728425503E-2
4.435815250E-1,4.793690052E-3,-1.597896684E-3,-3.888215125E-2
4.455821500E-1,2.663161140E-3,-1.597896684E-3,-3.941478580E-2
4.475822670E-1,2.663161140E-3,-5.326322280E-4,-3.888215125E-2
4.495821110E-1,5.326322280E-3,-1.065264456E-3,-4.207794741E-2
4.515814080E-1,3.728425596E-3,-5.326322280E-4,-4.207794741E-2
4.535805480E-1,3.728425596E-3,-1.597896684E-3,-3.994741663E-2
4.555791420E-1,5.858954508E-3,1.065264456E-3,-4.048004746E-2
4.575788690E-1,4.793690052E-3,2.663161140E-3,-4.048004746E-2
4.595789860E-1,3.728425596E-3,3.195793368E-3,-4.101268202E-2
4.615788690E-1,2.663161140E-3,3.728425596E-3,-3.888215125E-2
4.635792200E-1,5.326322280E-3,2.130528912E-3,-3.728425503E-2
4.655791030E-1,4.261057824E-3,0.000000000E0,-3.834952042E-2
4.675782440E-1,6.924218964E-3,5.326322280E-4,-3.888215125E-2
4.695778920E-1,5.858954508E-3,-1.065264456E-3,-3.728425503E-2
4.715783220E-1,4.261057824E-3,2.663161140E-3,-3.621899337E-2
4.735778530E-1,5.326322280E-3,-5.326322280E-4,-3.515372798E-2
4.755776190E-1,3.728425596E-3,0.000000000E0,-3.355583176E-2
4.775776190E-1,2.663161140E-3,0.000000000E0,-3.355583176E-2
4.795782830E-1,3.195793368E-3,-3.728425596E-3,-3.195793182E-2
4.815784000E-1,5.326322280E-3,-2.130528912E-3,-2.929477207E-2
4.835786340E-1,4.793690052E-3,2.130528912E-3,-2.716424316E-2
4.855791030E-1,4.261057824E-3,-4.793690052E-3,-2.663161233E-2
4.875782050E-1,1.597896684E-3,-5.326322280E-3,-2.396845073E-2
4.895776970E-1,3.195793368E-3,-3.728425596E-3,-2.183792181E-2
4.915776580E-1,2.663161140E-3,-3.195793368E-3,-2.130528912E-2
4.935775800E-1,3.728425596E-3,-3.728425596E-3,-1.917476021E-2
4.955782440E-1,2.130528912E-3,-4.261057824E-3,-1.810949668E-2
4.975785560E-1,2.663161140E-3,-3.195793368E-3,-1.544633508E-2
4.995782050E-1,3.195793368E-3,-2.130528912E-3,-1.384843793E-2
5.015779700E-1,4.261057824E-3,-1.065264456E-3,-1.384843793E-2
5.035785950E-1,2.130528912E-3,-1.597896684E-3,-1.171790902E-2
5.055787520E-1,4.261057824E-3,-5.326322280E-4,-1.012001187E-2
5.075794160E-1,2.663161140E-3,2.130528912E-3,-7.989482954E-3
5.095792980E-1,4.793690052E-3,-5.326322280E-4,-5.858954508E-3
5.115789860E-1,3.195793368E-3,1.597896684E-3,-6.391586736E-3
5.135787910E-1,1.597896684E-3,1.065264456E-3,-3.728425596E-3
5.155792590E-1,5.326322280E-3,2.130528912E-3,-2.663161140E-3
5.175791810E-1,2.663161140E-3,2.663161140E-3,-5.326322280E-4
5.195792200E-1,3.728425596E-3,0.000000000E0,-1.065264456E-3
5.215798840E-1,3.195793368E-3,-5.326322280E-4,5.326322280E-4
5.235809780E-1,3.195793368E-3,1.065264456E-3,2.663161140E-3
5.255816420E-1,2.663161140E-3,1.065264456E-3,5.326322280E-3
5.275828530E-1,2.663161140E-3,-2.130528912E-3,6.391586736E-3
5.295837120E-1,2.663161140E-3,-5.326322280E-4,6.391586736E-3
5.315839470E-1,1.065264456E-3,-1.065264456E-3,7.456851192E-3
5.335844940E-1,2.130528912E-3,1.597896684E-3,6.924218964E-3
5.355848060E-1,2.130528912E-3,0.000000000E0,8.522115648E-3
5.375853920E-1,2.130528912E-3,-2.130528912E-3,1.012001187E-2
5.395855870E-1,2.663161140E-3,5.326322280E-4,1.118527725E-2
5.415860560E-1,5.326322280E-4,-1.065264456E-3,9.054748341E-3
5.435866030E-1,3.195793368E-3,2.663161140E-3,1.171790902E-2
5.455848840E-1,2.663161140E-3,5.326322280E-4,1.118527725E-2
5.475840250E-1,1.597896684E-3,0.000000000E0,1.171790902E-2
5.495839470E-1,1.597896684E-3,2.130528912E-3,1.118527725E-2
5.515833220E-1,1.065264456E-3,2.130528912E-3,1.278317347E-2
5.535841030E-1,3.195793368E-3,-5.326322280E-4,1.225054078E-2
5.555852750E-1,2.130528912E-3,1.065264456E-3,1.171790902E-2
5.575856270E-1,1.597896684E-3,1.065264456E-3,1.278317347E-2
5.595863690E-1,2.130528912E-3,1.065264456E-3,1.118527725E-2
5.615869160E-1,3.728425596E-3,1.597896684E-3,1.171790902E-2
5.635873840E-1,3.195793368E-3,3.195793368E-3,1.065264456E-2
5.655884780E-1,4.261057824E-3,-1.597896684E-3,1.012001187E-2
5.675898840E-1,3.195793368E-3,5.326322280E-4,1.065264456E-2
5.695910560E-1,2.663161140E-3,0.000000000E0,1.171790902E-2
5.715920720E-1,3.195793368E-3,5.326322280E-4,1.012001187E-2
5.735933220E-1,3.728425596E-3,-2.130528912E-3,1.012001187E-2
5.755942980E-1,3.195793368E-3,-2.130528912E-3,1.065264456E-2
5.775939860E-1,3.195793368E-3,-2.130528912E-3,9.587380104E-3
5.795945720E-1,2.130528912E-3,-2.663161140E-3,1.012001187E-2
5.815948840E-1,2.130528912E-3,-2.130528912E-3,9.054748341E-3
5.835959000E-1,4.793690052E-3,-3.195793368E-3,1.012001187E-2
5.855979700E-1,2.663161140E-3,-1.597896684E-3,9.054748341E-3
5.875990250E-1,0.000000000E0,-2.130528912E-3,8.522115648E-3
5.895999620E-1,1.597896684E-3,-4.261057824E-3,9.587380104E-3
5.916001970E-1,0.000000000E0,-3.195793368E-3,9.587380104E-3
5.936007830E-1,2.130528912E-3,-2.663161140E-3,9.054748341E-3
5.956010560E-1,5.326322280E-4,-1.065264456E-3,9.587380104E-3
5.976007050E-1,3.195793368E-3,-1.597896684E-3,9.054748341E-3
5.996003140E-1,1.065264456E-3,-1.065264456E-3,9.054748341E-3
6.015997670E-1,1.597896684E-3,-5.326322280E-4,9.054748341E-3
6.035992200E-1,4.261057824E-3,2.130528912E-3,9.587380104E-3
6.055984780E-1,3.195793368E-3,1.065264456E-3,9.587380104E-3
6.075991030E-1,2.130528912E-3,3.728425596E-3,8.522115648E-3
6.095999230E-1,3.195793368E-3,1.065264456E-3,8.522115648E-3
6.116000800E-1,0.000000000E0,1.597896684E-3,1.065264456E-2
6.136010170E-1,4.261057824E-3,2.130528912E-3,8.522115648E-3
6.156017200E-1,3.728425596E-3,1.597896684E-3,9.587380104E-3
6.176017200E-1,1.065264456E-3,5.326322280E-4,9.587380104E-3
6.196022670E-1,2.663161140E-3,2.130528912E-3,8.522115648E-3
6.216033220E-1,3.195793368E-3,-1.597896684E-3,7.989482954E-3
6.236034780E-1,2.663161140E-3,-1.597896684E-3,8.522115648E-3
6.256034780E-1,2.130528912E-3,-2.663161140E-3,8.522115648E-3
6.276035170E-1,2.130528912E-3,-3.728425596E-3,1.012001187E-2
6.296042200E-1,2.663161140E-3,-3.195793368E-3,1.012001187E-2
6.316051580E-1,2.663161140E-3,-1.597896684E-3,1.012001187E-2
6.336060170E-1,3.195793368E-3,-3.728425596E-3,9.054748341E-3
6.356059780E-1,1.597896684E-3,-4.261057824E-3,1.012001187E-2
6.376055870E-1,1.597896684E-3,-2.130528912E-3,1.225054078E-2
6.396050020E-1,2.130528912E-3,-3.195793368E-3,9.587380104E-3
6.416049620E-1,2.130528912E-3,-3.195793368E-3,1.171790902E-2
6.436052360E-1,3.728425596E-3,-2.130528912E-3,1.118527725E-2
6.456057440E-1,1.065264456E-3,-1.597896684E-3,1.225054078E-2
6.476062520E-1,3.195793368E-3,-1.065264456E-3,1.118527725E-2
6.496072670E-1,2.130528912E-3,1.065264456E-3,1.225054078E-2
6.516090250E-1,1.597896684E-3,5.326322280E-4,1.331580617E-2
6.536101190E-1,3.195793368E-3,1.065264456E-3,1.225054078E-2
6.556114080E-1,1.597896684E-3,0.000000000E0,1.278317347E-2
6.576121890E-1,3.728425596E-3,1.065264456E-3,1.384843793E-2
6.596130090E-1,3.728425596E-3,-5.326322280E-4,1.384843793E-2
6.616141030E-1,1.597896684E-3,1.597896684E-3,1.597896591E-2
6.636155480E-1,1.065264456E-3,1.597896684E-3,1.491370238E-2
6.656173060E-1,2.663161140E-3,5.326322280E-4,1.651159860E-2
6.676185170E-1,1.065264456E-3,1.065264456E-3,1.757686399E-2
6.696196500E-1,4.261057824E-3,5.326322280E-4,1.917476021E-2
6.716207440E-1,2.663161140E-3,-2.130528912E-3,1.757686399E-2
6.736213300E-1,2.130528912E-3,-2.663161140E-3,1.917476021E-2
6.756222670E-1,2.663161140E-3,-2.130528912E-3,2.024002373E-2
6.776241810E-1,1.065264456E-3,-3.728425596E-3,2.130528912E-2
6.796260170E-1,1.065264456E-3,-3.728425596E-3,2.183792181E-2
6.816276580E-1,1.597896684E-3,-2.130528912E-3,2.343581803E-2
6.836282440E-1,2.130528912E-3,-3.195793368E-3,2.183792181E-2
6.856291810E-1,1.065264456E-3,-3.728425596E-3,2.290318534E-2
6.876301580E-1,2.663161140E-3,-5.326322280E-4,2.237055451E-2
6.896310950E-1,1.597896684E-3,-3.728425596E-3,2.290318534E-2
6.916320720E-1,-5.326322280E-4,-1.065264456E-3,2.237055451E-2
6.936331660E-1,1.597896684E-3,5.326322280E-4,2.396845073E-2
6.956341030E-1,0.000000000E0,-1.065264456E-3,2.396845073E-2
6.976354310E-1,2.130528912E-3,0.000000000E0,2.450108156E-2
6.996360560E-1,2.130528912E-3,2.130528912E-3,2.343581803E-2
7.016377360E-1,5.326322280E-4,2.663161140E-3,2.343581803E-2
7.036388690E-1,2.130528912E-3,2.130528912E-3,2.396845073E-2
7.056401970E-1,1.597896684E-3,5.326322280E-3,2.290318534E-2
7.076410560E-1,2.130528912E-3,3.728425596E-3,2.396845073E-2
7.096426580E-1,-1.597896684E-3,1.597896684E-3,2.237055451E-2
7.116437910E-1,2.130528912E-3,0.000000000E0,2.077265643E-2
7.136444160E-1,0.000000000E0,1.597896684E-3,2.237055451E-2
7.156452750E-1,1.065264456E-3,1.597896684E-3,2.077265643E-2
7.176453140E-1,2.130528912E-3,-1.065264456E-3,2.130528912E-2
7.196466030E-1,1.065264456E-3,-1.597896684E-3,1.970739290E-2
7.216480090E-1,5.326322280E-4,-2.663161140E-3,1.970739290E-2
7.236497280E-1,3.195793368E-3,-4.261057824E-3,2.024002373E-2
7.256509780E-1,2.663161140E-3,-2.663161140E-3,1.810949668E-2
7.276527360E-1,2.130528912E-3,-3.195793368E-3,1.704423130E-2
7.296535560E-1,3.728425596E-3,-6.391586736E-3,1.544633508E-2
7.316537120E-1,5.326322280E-4,-5.858954508E-3,1.384843793E-2
7.336543370E-1,1.597896684E-3,-2.130528912E-3,1.491370238E-2
7.356546890E-1,2.663161140E-3,-4.261057824E-3,1.171790902E-2
7.376555090E-1,1.597896684E-3,-4.261057824E-3,1.012001187E-2
7.396559000E-1,1.065264456E-3,-3.195793368E-3,9.054748341E-3
7.416556270E-1,5.326322280E-4,-1.597896684E-3,5.326322280E-3
7.436555870E-1,2.130528912E-3,-5.326322280E-4,6.924218964E-3
7.456553530E-1,3.195793368E-3,1.597896684E-3,5.326322280E-3
7.476557440E-1,2.130528912E-3,2.663161140E-3,2.663161140E-3
7.496557830E-1,1.597896684E-3,1.065264456E-3,3.195793368E-3
7.516565640E-1,0.000000000E0,2.130528912E-3,-1.597896684E-3
7.536578140E-1,2.663161140E-3,3.728425596E-3,-2.130528912E-3
7.556584000E-1,2.663161140E-3,3.728425596E-3,-4.261057824E-3
7.576588300E-1,3.195793368E-3,1.597896684E-3,-6.391586736E-3
7.596592980E-1,5.326322280E-4,3.728425596E-3,-6.924218964E-3
7.616599230E-1,3.195793368E-3,2.130528912E-3,-8.522115648E-3
7.636606660E-1,3.195793368E-3,1.597896684E-3,-1.012001187E-2
7.656616420E-1,-5.326322280E-4,2.130528912E-3,-1.118527725E-2
7.676623840E-1,5.326322280E-4,-1.597896684E-3,-1.438106969E-2
7.696634780E-1,1.065264456E-3,-1.597896684E-3,-1.544633508E-2
7.716653140E-1,3.195793368E-3,-1.597896684E-3,-1.544633508E-2
7.736659000E-1,2.663161140E-3,-2.663161140E-3,-1.864212751E-2
7.756673450E-1,2.663161140E-3,-4.261057824E-3,-1.970739290E-2
7.776696890E-1,4.261057824E-3,-3.195793368E-3,-2.024002373E-2
7.796709000E-1,3.728425596E-3,-5.858954508E-3,-2.183792181E-2
7.816720330E-1,3.728425596E-3,-3.195793368E-3,-2.183792181E-2
7.836727750E-1,1.597896684E-3,-3.195793368E-3,-2.450108156E-2
7.856737520E-1,4.261057824E-3,-2.663161140E-3,-2.450108156E-2
7.876749230E-1,3.728425596E-3,-1.065264456E-3,-2.450108156E-2
7.896755090E-1,3.728425596E-3,-5.326322280E-4,-2.663161233E-2
7.916757050E-1,5.326322280E-3,-1.597896684E-3,-2.716424316E-2
7.936760170E-1,4.261057824E-3,-5.326322280E-4,-3.036003746E-2
7.956760950E-1,2.663161140E-3,3.195793368E-3,-2.982740477E-2
7.976764860E-1,3.195793368E-3,2.130528912E-3,-3.036003746E-2
7.996763300E-1,5.858954508E-3,4.261057824E-3,-3.302319720E-2
8.016764080E-1,3.728425596E-3,3.728425596E-3,-3.089267015E-2
8.036763690E-1,3.728425596E-3,3.195793368E-3,-3.249056637E-2
8.056768770E-1,5.326322280E-3,4.793690052E-3,-3.302319720E-2
8.076775800E-1,5.326322280E-3,4.793690052E-3,-3.249056637E-2
8.096783610E-1,3.728425596E-3,2.663161140E-3,-3.302319720E-2
8.116781660E-1,3.195793368E-3,2.663161140E-3,-3.302319720E-2
8.136789470E-1,2.663161140E-3,2.130528912E-3,-3.355583176E-2
8.156789860E-1,3.195793368E-3,5.326322280E-4,-3.142530099E-2
8.176787910E-1,3.728425596E-3,-1.065264456E-3,-3.195793182E-2
8.196771110E-1,3.195793368E-3,-1.597896684E-3,-3.036003746E-2
8.216758220E-1,3.728425596E-3,-2.663161140E-3,-3.036003746E-2
8.236752750E-1,4.261057824E-3,-1.065264456E-3,-3.089267015E-2
8.256748060E-1,4.793690052E-3,-3.195793368E-3,-2.876213938E-2
8.276734780E-1,3.195793368E-3,-3.195793368E-3,-2.663161233E-2
8.296726970E-1,5.326322280E-3,-3.728425596E-3,-2.556634694E-2
8.316725410E-1,3.728425596E-3,-1.065264456E-3,-2.396845073E-2
8.336716810E-1,2.130528912E-3,-5.326322280E-4,-2.183792181E-2
8.356711340E-1,2.130528912E-3,-5.326322280E-4,-2.183792181E-2
8.376704700E-1,2.663161140E-3,-2.663161140E-3,-1.970739290E-2
8.396698450E-1,2.130528912E-3,-5.326322280E-4,-1.704423130E-2
8.416693770E-1,1.065264456E-3,1.597896684E-3,-1.544633508E-2
8.436685950E-1,5.326322280E-4,-1.065264456E-3,-1.171790902E-2
8.456677360E-1,5.858954508E-3,4.793690052E-3,-1.118527725E-2
8.476673840E-1,3.195793368E-3,4.793690052E-3,-1.012001187E-2
8.496665250E-1,1.597896684E-3,5.326322280E-3,-5.858954508E-3
8.516660950E-1,4.261057824E-3,6.924218964E-3,-5.858954508E-3
8.536650410E-1,1.597896684E-3,3.195793368E-3,-5.326322280E-3
8.556644940E-1,2.663161140E-3,3.195793368E-3,-2.663161140E-3
8.576645720E-1,1.597896684E-3,4.793690052E-3,0.000000000E0
8.596641030E-1,2.663161140E-3,2.663161140E-3,2.663161140E-3
8.616634780E-1,1.597896684E-3,1.065264456E-3,4.793690052E-3
8.636630870E-1,1.065264456E-3,2.130528912E-3,6.924218964E-3
8.656632440E-1,1.597896684E-3,5.326322280E-4,9.054748341E-3
8.676637120E-1,2.663161140E-3,-5.326322280E-4,1.118527725E-2
8.696635950E-1,1.065264456E-3,0.000000000E0,1.278317347E-2
8.716639860E-1,2.663161140E-3,-1.597896684E-3,1.491370238E-2
8.736641810E-1,5.326322280E-4,-2.130528912E-3,1.757686399E-2
8.756645330E-1,2.663161140E-3,5.326322280E-4,1.970739290E-2
8.776651970E-1,1.065264456E-3,5.326322280E-4,2.237055451E-2
8.796661730E-1,1.065264456E-3,-3.195793368E-3,2.343581803E-2
8.816673060E-1,0.000000000E0,-5.326322280E-4,2.556634694E-2
8.836688690E-1,-5.326322280E-4,5.326322280E-4,2.769687586E-2
8.856702360E-1,1.065264456E-3,1.597896684E-3,2.609897964E-2
8.876711730E-1,-1.065264456E-3,2.130528912E-3,2.876213938E-2
8.896725410E-1,5.326322280E-4,3.728425596E-3,3.355583176E-2
8.916738690E-1,-5.326322280E-4,3.728425596E-3,3.249056637E-2
8.936751580E-1,1.597896684E-3,4.793690052E-3,3.302319720E-2
8.956760170E-1,5.326322280E-4,3.728425596E-3,3.408846259E-2
8.976764860E-1,0.000000000E0,5.326322280E-3,3.462109342E-2
8.996769160E-1,-1.065264456E-3,5.326322280E-3,3.408846259E-2
9.016773060E-1,5.326322280E-4,7.456851192E-3,3.675162420E-2
9.036776580E-1,1.065264456E-3,9.054748341E-3,3.675162420E-2
9.056774230E-1,5.326322280E-4,5.326322280E-3,3.515372798E-2
9.076771890E-1,5.326322280E-4,3.195793368E-3,3.728425503E-2
9.096774620E-1,1.597896684E-3,4.793690052E-3,3.675162420E-2
9.116782050E-1,1.065264456E-3,2.663161140E-3,3.621899337E-2
9.136791810E-1,0.000000000E0,1.065264456E-3,3.728425503E-2
9.156794940E-1,1.597896684E-3,1.597896684E-3,3.568635881E-2
9.176800020E-1,2.130528912E-3,-1.597896684E-3,3.675162420E-2
9.196808220E-1,-1.065264456E-3,-1.065264456E-3,3.568635881E-2
9.216817980E-1,-5.326322280E-4,-3.728425596E-3,3.515372798E-2
9.236825410E-1,0.000000000E0,-1.597896684E-3,3.462109342E-2
9.256835560E-1,0.000000000E0,-2.663161140E-3,3.195793182E-2
9.276841810E-1,-5.326322280E-4,5.326322280E-4,3.195793182E-2
9.296848060E-1,5.326322280E-4,-1.597896684E-3,3.302319720E-2
9.316853920E-1,2.130528912E-3,-1.597896684E-3,3.142530099E-2
9.336857050E-1,1.065264456E-3,-1.065264456E-3,3.089267015E-2
9.356862120E-1,5.326322280E-4,3.195793368E-3,3.036003746E-2
9.376867590E-1,3.195793368E-3,1.065264456E-3,2.822950855E-2
9.396876970E-1,1.597896684E-3,1.597896684E-3,2.929477207E-2
9.416878140E-1,0.000000000E0,4.261057824E-3,2.663161233E-2
9.436890250E-1,1.065264456E-3,6.391586736E-3,2.556634694E-2
9.456900410E-1,1.065264456E-3,5.858954508E-3,2.556634694E-2
9.476915250E-1,2.130528912E-3,4.793690052E-3,2.396845073E-2
9.496927750E-1,1.065264456E-3,6.391586736E-3,2.343581803E-2
9.516934780E-1,3.728425596E-3,5.858954508E-3,2.077265643E-2
9.536941420E-1,5.326322280E-4,4.261057824E-3,1.917476021E-2
9.556953140E-1,0.000000000E0,3.728425596E-3,1.651159860E-2
9.576954700E-1,1.065264456E-3,3.195793368E-3,1.491370238E-2
9.596961730E-1,2.130528912E-3,4.261057824E-3,1.438106969E-2
9.616973060E-1,2.130528912E-3,1.065264456E-3,1.065264456E-2
9.636980090E-1,1.597896684E-3,-3.195793368E-3,1.118527725E-2
9.656986340E-1,0.000000000E0,-2.663161140E-3,9.054748341E-3
9.676997280E-1,1.597896684E-3,-2.130528912E-3,7.456851192E-3
9.697002750E-1,3.195793368E-3,-2.663161140E-3,5.326322280E-3
9.717011340E-1,5.326322280E-4,-4.793690052E-3,2.663161140E-3
9.737021500E-1,2.130528912E-3,-4.261057824E-3,1.065264456E-3
9.757031270E-1,2.663161140E-3,-2.130528912E-3,0.000000000E0
9.777037520E-1,2.663161140E-3,-5.326322280E-3,-1.597896684E-3
9.797036340E-1,1.597896684E-3,-2.130528912E-3,-3.728425596E-3
9.817029700E-1,5.858954508E-3,-3.195793368E-3,-3.195793368E-3
9.837026580E-1,4.261057824E-3,-2.130528912E-3,-6.391586736E-3
9.857025410E-1,5.326322280E-3,1.065264456E-3,-8.522115648E-3
9.877032050E-1,2.663161140E-3,-1.065264456E-3,-8.522115648E-3
9.897028920E-1,3.195793368E-3,5.326322280E-4,-9.054748341E-3
9.917029700E-1,3.195793368E-3,1.065264456E-3,-1.065264456E-2
9.937023450E-1,2.130528912E-3,-1.597896684E-3,-1.225054078E-2
9.957020720E-1,4.261057824E-3,3.728425596E-3,-1.331580617E-2
9.977021110E-1,2.130528912E-3,1.597896684E-3,-1.384843793E-2
9.997016420E-1,2.663161140E-3,1.065264456E-3,-1.597896591E-2
1.001701720E0,5.326322280E-4,0.000000000E0,-1.651159860E-2
1.003701877E0,3.728425596E-3,0.000000000E0,-1.864212751E-2
1.005701603E0,2.130528912E-3,-5.326322280E-4,-1.970739290E-2
1.007702462E0,4.261057824E-3,-3.195793368E-3,-2.024002373E-2
1.009701720E0,3.195793368E-3,-5.326322280E-3,-2.237055451E-2
1.011700861E0,2.663161140E-3,-4.793690052E-3,-2.077265643E-2
1.013700900E0,4.793690052E-3,-4.261057824E-3,-2.237055451E-2
1.015701486E0,2.130528912E-3,-5.326322280E-3,-2.183792181E-2
1.017701642E0,3.195793368E-3,-7.989482954E-3,-2.396845073E-2
1.019702384E0,2.130528912E-3,-5.326322280E-3,-2.396845073E-2
1.021703127E0,2.130528912E-3,-5.858954508E-3,-2.556634694E-2
1.023703947E0,2.663161140E-3,-6.391586736E-3,-2.450108156E-2
1.025705041E0,4.261057824E-3,-5.326322280E-3,-2.609897964E-2
1.027705314E0,2.663161140E-3,-4.793690052E-3,-2.450108156E-2
1.029705509E0,3.195793368E-3,-4.261057824E-3,-2.450108156E-2
1.031704767E0,5.326322280E-3,-5.326322280E-3,-2.663161233E-2
1.033704845E0,3.195793368E-3,-2.130528912E-3,-2.450108156E-2
1.035704377E0,4.793690052E-3,-1.065264456E-3,-2.450108156E-2
1.037704416E0,3.195793368E-3,0.000000000E0,-2.450108156E-2
1.039704220E0,4.793690052E-3,1.065264456E-3,-2.450108156E-2
1.041703673E0,3.728425596E-3,1.597896684E-3,-2.556634694E-2
1.043703947E0,4.793690052E-3,1.065264456E-3,-2.396845073E-2
1.045704181E0,3.195793368E-3,2.130528912E-3,-2.077265643E-2
1.047704884E0,5.326322280E-3,2.130528912E-3,-2.130528912E-2
1.049705978E0,5.858954508E-3,2.130528912E-3,-1.970739290E-2
1.051706369E0,2.663161140E-3,-1.065264456E-3,-2.130528912E-2
1.053706525E0,2.130528912E-3,1.065264456E-3,-1.970739290E-2
1.055707267E0,3.195793368E-3,1.065264456E-3,-2.183792181E-2
1.057706994E0,3.728425596E-3,2.130528912E-3,-1.970739290E-2
1.059707345E0,2.663161140E-3,0.000000000E0,-1.917476021E-2
1.061708673E0,3.728425596E-3,-1.597896684E-3,-1.917476021E-2
1.063709767E0,1.597896684E-3,-5.326322280E-4,-1.651159860E-2
1.065710587E0,3.195793368E-3,-1.597896684E-3,-1.810949668E-2
1.067711916E0,3.728425596E-3,-2.663161140E-3,-1.917476021E-2
1.069712931E0,4.793690052E-3,0.000000000E0,-1.757686399E-2
1.071712814E0,4.793690052E-3,-1.065264456E-3,-1.704423130E-2
1.073712619E0,3.728425596E-3,-3.728425596E-3,-1.544633508E-2
1.075713283E0,3.195793368E-3,-3.728425596E-3,-1.384843793E-2
1.077713048E0,2.663161140E-3,-6.391586736E-3,-1.331580617E-2
1.079712931E0,3.195793368E-3,-4.793690052E-3,-1.118527725E-2
1.081713400E0,3.195793368E-3,-4.793690052E-3,-1.384843793E-2
1.083713752E0,2.130528912E-3,-5.326322280E-3,-1.331580617E-2
1.085714064E0,4.261057824E-3,-5.858954508E-3,-1.065264456E-2
1.087714767E0,3.728425596E-3,-4.793690052E-3,-9.054748341E-3
1.089714728E0,2.663161140E-3,-4.793690052E-3,-8.522115648E-3
1.091714884E0,4.793690052E-3,-2.663161140E-3,-9.587380104E-3
1.093715431E0,2.663161140E-3,-5.326322280E-4,-8.522115648E-3
1.095715822E0,1.065264456E-3,-2.663161140E-3,-4.793690052E-3
1.097715978E0,2.130528912E-3,-1.065264456E-3,-5.326322280E-3
1.099716212E0,2.663161140E-3,5.326322280E-4,-2.130528912E-3
1.101716173E0,2.663161140E-3,1.597896684E-3,-4.261057824E-3
1.103716369E0,1.597896684E-3,1.597896684E-3,-3.195793368E-3
1.105716486E0,2.130528912E-3,1.597896684E-3,-5.326322280E-4
1.107716212E0,3.195793368E-3,1.065264456E-3,-5.326322280E-4
1.109716252E0,0.000000000E0,1.065264456E-3,1.065264456E-3
1.111716408E0,1.597896684E-3,3.728425596E-3,1.065264456E-3
1.113716681E0,1.065264456E-3,2.663161140E-3,3.728425596E-3
1.115717267E0,2.130528912E-3,5.326322280E-4,3.728425596E-3
1.117717970E0,2.663161140E-3,1.065264456E-3,5.858954508E-3
1.119717775E0,2.130528912E-3,1.065264456E-3,7.989482954E-3
1.121718361E0,5.326322280E-4,1.065264456E-3,9.587380104E-3
1.123719728E0,2.130528912E-3,0.000000000E0,9.587380104E-3
1.125720548E0,3.728425596E-3,2.130528912E-3,1.171790902E-2
1.127720783E0,2.130528912E-3,1.065264456E-3,1.225054078E-2
1.129720783E0,2.130528912E-3,-5.326322280E-4,1.331580617E-2
1.131721603E0,4.261057824E-3,1.065264456E-3,1.651159860E-2
1.133722697E0,1.065264456E-3,1.065264456E-3,1.544633508E-2
1.135723087E0,2.663161140E-3,2.130528912E-3,1.864212751E-2
1.137724103E0,2.130528912E-3,3.728425596E-3,2.024002373E-2
1.139724455E0,2.130528912E-3,4.793690052E-3,2.024002373E-2
1.141724181E0,2.130528912E-3,4.261057824E-3,2.130528912E-2
1.143723244E0,1.065264456E-3,5.858954508E-3,2.343581803E-2
1.145722580E0,-5.326322280E-4,7.456851192E-3,2.663161233E-2
1.147722462E0,1.597896684E-3,5.858954508E-3,2.716424316E-2
1.149721994E0,0.000000000E0,7.456851192E-3,2.663161233E-2
1.151722775E0,1.065264456E-3,4.261057824E-3,3.089267015E-2
1.153722306E0,5.326322280E-4,6.924218964E-3,2.876213938E-2
1.155722423E0,0.000000000E0,6.391586736E-3,2.876213938E-2
1.157722423E0,2.663161140E-3,4.261057824E-3,2.876213938E-2
1.159722541E0,1.065264456E-3,4.261057824E-3,3.089267015E-2
1.161722541E0,1.065264456E-3,2.130528912E-3,3.089267015E-2
1.163722228E0,-5.326322280E-4,1.597896684E-3,3.355583176E-2
1.165721994E0,1.597896684E-3,2.663161140E-3,3.249056637E-2
1.167721447E0,1.065264456E-3,1.597896684E-3,3.302319720E-2
1.169720587E0,1.597896684E-3,2.663161140E-3,3.621899337E-2
1.171720705E0,-5.326322280E-4,1.597896684E-3,3.462109342E-2
1.173720509E0,1.065264456E-3,5.858954508E-3,3.675162420E-2
1.175719572E0,2.130528912E-3,3.728425596E-3,3.675162420E-2
1.177718283E0,1.065264456E-3,4.793690052E-3,3.728425503E-2
1.179717345E0,2.130528912E-3,4.793690052E-3,3.728425503E-2
1.181717423E0,0.000000000E0,4.793690052E-3,3.728425503E-2
1.183718127E0,1.065264456E-3,1.597896684E-3,3.941478580E-2
1.185719298E0,1.597896684E-3,3.195793368E-3,3.781688958E-2
1.187720353E0,-5.326322280E-4,5.326322280E-3,3.994741663E-2
1.189721056E0,2.130528912E-3,2.663161140E-3,3.834952042E-2
1.191721369E0,5.326322280E-4,-1.597896684E-3,3.941478580E-2
1.193720627E0,2.130528912E-3,3.728425596E-3,3.941478580E-2
1.195720627E0,5.326322280E-4,2.130528912E-3,3.834952042E-2
1.197721095E0,5.326322280E-4,0.000000000E0,3.781688958E-2
1.199720939E0,5.326322280E-4,0.000000000E0,3.675162420E-2
1.201720744E0,2.663161140E-3,1.065264456E-3,3.728425503E-2
1.203720822E0,0.000000000E0,-2.130528912E-3,3.675162420E-2
1.205721447E0,3.195793368E-3,-2.130528912E-3,3.621899337E-2
1.207721564E0,-5.326322280E-4,-1.597896684E-3,3.408846259E-2
1.209720783E0,5.326322280E-4,-2.130528912E-3,3.568635881E-2
1.211721134E0,-1.597896684E-3,-2.130528912E-3,3.302319720E-2
1.213721486E0,-5.326322280E-4,-6.391586736E-3,3.195793182E-2
1.215721291E0,1.065264456E-3,-4.261057824E-3,3.195793182E-2
1.217721134E0,1.065264456E-3,-6.391586736E-3,3.036003746E-2
1.219720627E0,2.130528912E-3,-5.326322280E-3,2.982740477E-2
1.221720158E0,1.597896684E-3,-2.663161140E-3,2.876213938E-2
1.223719845E0,5.326322280E-4,-4.261057824E-3,2.769687586E-2
1.225719767E0,1.597896684E-3,-3.195793368E-3,2.769687586E-2
1.227719259E0,3.195793368E-3,-3.728425596E-3,2.450108156E-2
1.229718634E0,1.597896684E-3,-3.728425596E-3,2.343581803E-2
1.231717970E0,3.195793368E-3,-4.261057824E-3,2.290318534E-2
1.233717423E0,5.326322280E-4,-1.065264456E-3,2.077265643E-2
1.235717033E0,2.130528912E-3,0.000000000E0,2.077265643E-2
1.237716525E0,3.195793368E-3,5.326322280E-4,1.970739290E-2
1.239715861E0,3.728425596E-3,-1.065264456E-3,1.864212751E-2
1.241715119E0,2.663161140E-3,5.326322280E-4,1.704423130E-2
1.243715275E0,3.195793368E-3,5.326322280E-4,1.810949668E-2
1.245714611E0,3.195793368E-3,1.065264456E-3,1.544633508E-2
1.247713869E0,2.663161140E-3,1.065264456E-3,1.544633508E-2
1.249713634E0,1.597896684E-3,1.065264456E-3,1.171790902E-2
1.251713947E0,4.793690052E-3,5.326322280E-4,1.118527725E-2
1.253714142E0,3.195793368E-3,5.326322280E-4,9.054748341E-3
1.255714220E0,5.326322280E-4,-1.597896684E-3,7.456851192E-3
1.257715509E0,1.597896684E-3,-1.597896684E-3,4.793690052E-3
1.259716134E0,2.130528912E-3,-3.195793368E-3,4.793690052E-3
1.261716603E0,3.195793368E-3,-1.597896684E-3,2.663161140E-3
1.263716252E0,2.130528912E-3,-3.728425596E-3,5.326322280E-4
1.265716252E0,3.728425596E-3,-4.261057824E-3,-2.130528912E-3
1.267716603E0,3.195793368E-3,-4.261057824E-3,-3.728425596E-3
1.269716134E0,2.663161140E-3,-2.663161140E-3,-5.326322280E-3
1.271715822E0,2.663161140E-3,-6.391586736E-3,-6.924218964E-3
1.273715314E0,3.728425596E-3,-4.261057824E-3,-1.012001187E-2
1.275715627E0,4.261057824E-3,-4.793690052E-3,-1.225054078E-2
1.277714884E0,4.261057824E-3,-1.597896684E-3,-1.544633508E-2
1.279714806E0,4.793690052E-3,-1.597896684E-3,-1.597896591E-2
1.281714650E0,6.391586736E-3,-2.663161140E-3,-1.810949668E-2
1.283714845E0,3.195793368E-3,-3.195793368E-3,-2.077265643E-2
1.285715548E0,5.858954508E-3,-2.130528912E-3,-2.183792181E-2
1.287715470E0,3.728425596E-3,5.326322280E-4,-2.343581803E-2
1.289714884E0,3.195793368E-3,-5.326322280E-4,-2.396845073E-2
1.291714572E0,5.326322280E-3,1.597896684E-3,-2.396845073E-2
1.293714337E0,4.261057824E-3,5.326322280E-4,-2.609897964E-2
1.295713947E0,4.261057824E-3,1.065264456E-3,-2.876213938E-2
1.297713986E0,3.195793368E-3,1.065264456E-3,-2.929477207E-2
1.299712970E0,4.261057824E-3,-1.597896684E-3,-3.142530099E-2
1.301712814E0,4.793690052E-3,-5.326322280E-4,-3.089267015E-2
1.303713322E0,5.326322280E-3,-1.065264456E-3,-3.142530099E-2
1.305713244E0,4.261057824E-3,-2.130528912E-3,-3.462109342E-2
1.307713205E0,5.326322280E-3,5.326322280E-4,-3.408846259E-2
1.309713009E0,3.728425596E-3,-2.130528912E-3,-3.515372798E-2
1.311713087E0,3.728425596E-3,-3.195793368E-3,-3.568635881E-2
1.313713166E0,4.793690052E-3,-2.663161140E-3,-3.675162420E-2
1.315713009E0,3.195793368E-3,-3.728425596E-3,-3.834952042E-2
1.317713166E0,3.195793368E-3,-3.728425596E-3,-3.888215125E-2
1.319713048E0,4.261057824E-3,-3.195793368E-3,-3.941478580E-2
1.321713400E0,5.858954508E-3,-2.130528912E-3,-4.048004746E-2
1.323713752E0,5.326322280E-3,-3.195793368E-3,-4.314320907E-2
1.325713673E0,5.326322280E-3,-2.663161140E-3,-4.314320907E-2
1.327714337E0,4.261057824E-3,-1.597896684E-3,-4.261057824E-2
1.329714416E0,4.261057824E-3,-1.597896684E-3,-4.420847446E-2
1.331714572E0,3.195793368E-3,-1.065264456E-3,-4.314320907E-2
1.333715275E0,4.793690052E-3,1.597896684E-3,-4.367584363E-2
1.335716447E0,6.391586736E-3,5.326322280E-4,-4.474110901E-2
1.337716994E0,4.261057824E-3,5.326322280E-4,-4.420847446E-2
1.339717814E0,5.858954508E-3,1.597896684E-3,-4.474110901E-2
1.341717228E0,5.326322280E-3,2.663161140E-3,-4.261057824E-2
1.343716447E0,6.391586736E-3,1.597896684E-3,-4.527373984E-2
1.345716017E0,6.391586736E-3,3.195793368E-3,-4.154531285E-2
1.347715822E0,2.663161140E-3,3.728425596E-3,-4.207794741E-2
1.349715158E0,4.793690052E-3,1.065264456E-3,-4.101268202E-2
1.351714962E0,3.195793368E-3,1.065264456E-3,-3.994741663E-2
1.353714689E0,6.391586736E-3,-1.065264456E-3,-3.994741663E-2
1.355715119E0,3.195793368E-3,1.597896684E-3,-3.888215125E-2
1.357715627E0,3.195793368E-3,-5.326322280E-4,-3.834952042E-2
1.359715783E0,3.728425596E-3,1.065264456E-3,-3.568635881E-2
1.361716212E0,4.793690052E-3,1.597896684E-3,-3.675162420E-2
1.363716330E0,3.728425596E-3,-1.597896684E-3,-3.462109342E-2
1.365715939E0,3.195793368E-3,1.065264456E-3,-3.462109342E-2
1.367716447E0,4.261057824E-3,1.065264456E-3,-3.408846259E-2
1.369716994E0,5.858954508E-3,-1.065264456E-3,-3.089267015E-2
1.371717775E0,5.326322280E-3,-2.663161140E-3,-3.249056637E-2
1.373719064E0,6.391586736E-3,0.000000000E0,-3.036003746E-2
1.375720548E0,3.195793368E-3,-1.065264456E-3,-3.036003746E-2
1.377721408E0,3.728425596E-3,-1.065264456E-3,-2.876213938E-2
1.379722423E0,4.793690052E-3,-1.597896684E-3,-2.876213938E-2
1.381723322E0,4.261057824E-3,5.326322280E-4,-2.876213938E-2
1.383723439E0,3.195793368E-3,1.597896684E-3,-2.663161233E-2
1.385722970E0,1.597896684E-3,5.326322280E-4,-2.503371425E-2
1.387722775E0,5.326322280E-3,3.728425596E-3,-2.396845073E-2
1.389722228E0,3.728425596E-3,2.663161140E-3,-2.130528912E-2
1.391722345E0,2.663161140E-3,1.597896684E-3,-1.970739290E-2
1.393722736E0,3.195793368E-3,0.000000000E0,-1.810949668E-2
1.395722697E0,2.663161140E-3,2.130528912E-3,-1.651159860E-2
1.397722775E0,3.728425596E-3,2.663161140E-3,-1.438106969E-2
1.399722697E0,0.000000000E0,1.597896684E-3,-1.438106969E-2
1.401723283E0,1.065264456E-3,0.000000000E0,-1.118527725E-2
1.403723205E0,4.261057824E-3,2.663161140E-3,-9.054748341E-3
1.405724025E0,4.261057824E-3,1.065264456E-3,-6.391586736E-3
1.407725392E0,2.663161140E-3,1.065264456E-3,-5.858954508E-3
1.409725627E0,3.195793368E-3,0.000000000E0,-4.261057824E-3
1.411725861E0,4.793690052E-3,5.326322280E-4,-1.065264456E-3
1.413726212E0,3.195793368E-3,5.326322280E-4,0.000000000E0
1.415726017E0,3.728425596E-3,-5.326322280E-4,0.000000000E0
1.417726017E0,1.597896684E-3,-5.326322280E-4,3.195793368E-3
1.419726486E0,2.130528912E-3,0.000000000E0,4.793690052E-3
1.421727697E0,3.728425596E-3,2.130528912E-3,4.261057824E-3
1.423730236E0,3.195793368E-3,5.326322280E-4,6.391586736E-3
1.425732111E0,4.261057824E-3,1.065264456E-3,8.522115648E-3
1.427732970E0,1.597896684E-3,1.065264456E-3,1.065264456E-2
1.429735041E0,1.597896684E-3,-1.065264456E-3,1.065264456E-2
1.431736447E0,3.728425596E-3,1.597896684E-3,1.118527725E-2
1.433736994E0,1.597896684E-3,-5.326322280E-4,1.491370238E-2
1.435738869E0,1.597896684E-3,0.000000000E0,1.757686399E-2
1.437740587E0,2.130528912E-3,1.597896684E-3,1.810949668E-2
1.439742267E0,2.130528912E-3,0.000000000E0,1.917476021E-2
1.441743673E0,5.326322280E-4,2.663161140E-3,2.290318534E-2
1.443745041E0,3.195793368E-3,5.326322280E-4,2.343581803E-2
1.445745431E0,1.597896684E-3,5.326322280E-4,2.769687586E-2
1.447746369E0,5.326322280E-4,2.130528912E-3,3.089267015E-2
1.449747189E0,1.065264456E-3,-1.065264456E-3,3.142530099E-2
1.451747814E0,-1.065264456E-3,-5.326322280E-4,3.568635881E-2
1.453748634E0,1.597896684E-3,-2.663161140E-3,3.728425503E-2
1.455749259E0,-1.065264456E-3,-4.793690052E-3,3.941478580E-2
1.457750509E0,5.326322280E-4,-4.261057824E-3,3.941478580E-2
1.459751564E0,5.326322280E-4,-5.858954508E-3,4.101268202E-2
1.461751759E0,-2.130528912E-3,-6.924218964E-3,4.261057824E-2
1.463752502E0,5.326322280E-4,-4.261057824E-3,4.474110901E-2
1.465753556E0,5.326322280E-4,-6.924218964E-3,4.527373984E-2
1.467754298E0,1.065264456E-3,-4.261057824E-3,4.580637068E-2
1.469754962E0,2.130528912E-3,-3.195793368E-3,4.740426689E-2
1.471756173E0,0.000000000E0,-2.663161140E-3,4.846953228E-2
1.473756759E0,-1.065264456E-3,-3.195793368E-3,4.846953228E-2
1.475756798E0,5.326322280E-4,-2.130528912E-3,4.953479767E-2
1.477756916E0,5.326322280E-4,-1.065264456E-3,4.846953228E-2
1.479758205E0,5.326322280E-4,1.065264456E-3,5.060006306E-2
1.481758673E0,1.597896684E-3,-5.326322280E-4,5.006742850E-2
1.483758830E0,2.130528912E-3,1.597896684E-3,5.326322466E-2
1.485759377E0,1.065264456E-3,5.326322280E-4,5.113269389E-2
1.487759220E0,1.065264456E-3,3.728425596E-3,5.273059011E-2
1.489759259E0,-1.065264456E-3,2.663161140E-3,5.219795927E-2
1.491758830E0,-5.326322280E-4,1.597896684E-3,5.166532472E-2
1.493759611E0,0.000000000E0,4.793690052E-3,5.273059011E-2
1.495759650E0,-1.065264456E-3,5.326322280E-4,5.379585549E-2
1.497759533E0,0.000000000E0,3.195793368E-3,5.219795927E-2
1.499760041E0,1.597896684E-3,-1.065264456E-3,5.432848632E-2
1.501761017E0,0.000000000E0,5.326322280E-4,5.326322466E-2
1.503761525E0,1.065264456E-3,-5.326322280E-4,5.273059011E-2
1.505762189E0,0.000000000E0,-1.065264456E-3,5.432848632E-2
1.507762345E0,0.000000000E0,1.065264456E-3,5.166532472E-2
1.509763048E0,-5.326322280E-4,-2.130528912E-3,5.006742850E-2
1.511763869E0,5.326322280E-4,-2.663161140E-3,5.060006306E-2
1.513764572E0,-5.326322280E-4,5.326322280E-4,4.793690145E-2
1.515764884E0,1.065264456E-3,-1.597896684E-3,4.474110901E-2
1.517764689E0,2.130528912E-3,-1.065264456E-3,4.420847446E-2
1.519764884E0,0.000000000E0,-5.326322280E-4,4.314320907E-2
1.521764884E0,1.597896684E-3,0.000000000E0,3.994741663E-2
1.523765197E0,1.065264456E-3,5.326322280E-4,3.728425503E-2
1.525766212E0,0.000000000E0,2.130528912E-3,3.462109342E-2
1.527766916E0,2.130528912E-3,2.130528912E-3,3.355583176E-2
1.529766955E0,1.597896684E-3,5.326322280E-4,3.089267015E-2
1.531766603E0,0.000000000E0,4.261057824E-3,2.822950855E-2
1.533767384E0,5.326322280E-4,2.663161140E-3,2.663161233E-2
1.535768400E0,5.326322280E-4,3.195793368E-3,2.290318534E-2
1.537769298E0,1.597896684E-3,3.195793368E-3,2.130528912E-2
1.539769884E0,5.326322280E-4,3.195793368E-3,1.970739290E-2
1.541770548E0,1.065264456E-3,1.597896684E-3,1.438106969E-2
1.543771447E0,1.065264456E-3,3.195793368E-3,1.384843793E-2
1.545772541E0,3.728425596E-3,6.391586736E-3,1.118527725E-2
1.547772462E0,2.663161140E-3,6.391586736E-3,9.587380104E-3
1.549772033E0,3.728425596E-3,0.000000000E0,5.858954508E-3
1.551772072E0,3.728425596E-3,2.130528912E-3,4.793690052E-3
1.553772384E0,2.663161140E-3,3.195793368E-3,1.597896684E-3
1.555772462E0,3.728425596E-3,3.195793368E-3,-1.065264456E-3
1.557773127E0,1.065264456E-3,5.326322280E-4,-3.728425596E-3
1.559774337E0,3.195793368E-3,3.728425596E-3,-6.391586736E-3
1.561775392E0,3.728425596E-3,4.261057824E-3,-9.587380104E-3
1.563776291E0,2.130528912E-3,2.663161140E-3,-1.384843793E-2
1.565776798E0,4.261057824E-3,2.663161140E-3,-1.597896591E-2
1.567777462E0,3.195793368E-3,4.261057824E-3,-1.864212751E-2
1.569778244E0,1.597896684E-3,3.728425596E-3,-2.237055451E-2
1.571778791E0,4.793690052E-3,3.195793368E-3,-2.396845073E-2
1.573779572E0,3.728425596E-3,3.728425596E-3,-2.822950855E-2
1.575779689E0,3.195793368E-3,2.663161140E-3,-2.876213938E-2
1.577780666E0,3.728425596E-3,3.195793368E-3,-3.462109342E-2
1.579781955E0,4.261057824E-3,4.261057824E-3,-3.408846259E-2
1.581782814E0,5.326322280E-3,5.326322280E-3,-3.621899337E-2
1.583783752E0,4.793690052E-3,5.326322280E-3,-3.994741663E-2
1.585784494E0,4.261057824E-3,3.728425596E-3,-4.207794741E-2
1.587785080E0,4.261057824E-3,4.261057824E-3,-4.261057824E-2
1.589785470E0,4.261057824E-3,3.195793368E-3,-4.261057824E-2
1.591785744E0,6.924218964E-3,4.793690052E-3,-4.580637068E-2
1.593786955E0,3.728425596E-3,2.663161140E-3,-4.687163606E-2
1.595787345E0,6.391586736E-3,3.195793368E-3,-4.687163606E-2
1.597787580E0,6.924218964E-3,4.261057824E-3,-4.687163606E-2
1.599787736E0,6.391586736E-3,2.130528912E-3,-4.953479767E-2
1.601788361E0,6.924218964E-3,2.130528912E-3,-4.846953228E-2
1.603789064E0,6.391586736E-3,5.326322280E-4,-5.113269389E-2
1.605790119E0,5.858954508E-3,5.326322280E-4,-5.006742850E-2
1.607791447E0,4.793690052E-3,0.000000000E0,-4.846953228E-2
1.609790900E0,6.924218964E-3,1.597896684E-3,-4.900216311E-2
1.611790627E0,5.326322280E-3,1.065264456E-3,-4.953479767E-2
1.613791252E0,6.391586736E-3,1.597896684E-3,-4.953479767E-2
1.615791642E0,2.130528912E-3,1.065264456E-3,-4.740426689E-2
1.617792462E0,6.391586736E-3,1.597896684E-3,-4.793690145E-2
1.619792775E0,7.456851192E-3,2.663161140E-3,-4.953479767E-2
1.621793791E0,4.261057824E-3,2.663161140E-3,-4.793690145E-2
1.623795314E0,3.728425596E-3,1.065264456E-3,-4.474110901E-2
1.625796642E0,3.195793368E-3,1.065264456E-3,-4.420847446E-2
1.627795939E0,7.456851192E-3,3.728425596E-3,-4.261057824E-2
1.629795861E0,3.728425596E-3,3.195793368E-3,-4.048004746E-2
1.631796369E0,6.391586736E-3,-5.326322280E-4,-3.994741663E-2
1.633796916E0,4.793690052E-3,5.326322280E-4,-3.834952042E-2
1.635797619E0,4.793690052E-3,0.000000000E0,-3.568635881E-2
1.637797697E0,4.793690052E-3,-1.597896684E-3,-3.195793182E-2
1.639797462E0,4.261057824E-3,-2.130528912E-3,-3.142530099E-2
1.641797697E0,5.858954508E-3,-2.130528912E-3,-2.929477207E-2
1.643798517E0,5.858954508E-3,-2.130528912E-3,-2.609897964E-2
1.645799455E0,6.391586736E-3,-1.597896684E-3,-2.130528912E-2
1.647800548E0,4.793690052E-3,-3.728425596E-3,-1.970739290E-2
1.649801603E0,5.326322280E-3,-1.597896684E-3,-1.491370238E-2
1.651802384E0,4.261057824E-3,-1.065264456E-3,-1.331580617E-2
1.653803439E0,5.858954508E-3,-1.597896684E-3,-1.171790902E-2
1.655803244E0,5.858954508E-3,-5.326322280E-4,-7.989482954E-3
1.657803752E0,3.728425596E-3,-1.065264456E-3,-4.793690052E-3
1.659804572E0,2.663161140E-3,-1.065264456E-3,-2.130528912E-3
1.661804494E0,2.130528912E-3,5.326322280E-4,3.195793368E-3
1.663804650E0,2.130528912E-3,-5.326322280E-4,4.793690052E-3
1.665804064E0,4.261057824E-3,0.000000000E0,5.858954508E-3
1.667803166E0,2.130528912E-3,5.326322280E-4,9.054748341E-3
1.669802384E0,2.663161140E-3,1.597896684E-3,1.065264456E-2
1.671802892E0,2.663161140E-3,1.597896684E-3,1.118527725E-2
1.673803322E0,3.728425596E-3,1.597896684E-3,1.331580617E-2
1.675804455E0,4.261057824E-3,-1.065264456E-3,1.651159860E-2
1.677804611E0,3.728425596E-3,0.000000000E0,2.024002373E-2
1.679804494E0,2.663161140E-3,-5.326322280E-4,2.077265643E-2
1.681804337E0,4.261057824E-3,-2.130528912E-3,2.237055451E-2
1.683805744E0,3.195793368E-3,-1.597896684E-3,2.343581803E-2
1.685806212E0,4.793690052E-3,-3.728425596E-3,2.503371425E-2
1.687806759E0,2.130528912E-3,-1.065264456E-3,2.663161233E-2
1.689807658E0,2.130528912E-3,-4.793690052E-3,2.929477207E-2
1.691808908E0,4.261057824E-3,-3.195793368E-3,2.929477207E-2
1.693811134E0,2.130528912E-3,-4.261057824E-3,3.089267015E-2
1.695812580E0,2.663161140E-3,-3.195793368E-3,3.142530099E-2
1.697813361E0,2.663161140E-3,-5.858954508E-3,3.355583176E-2
1.699814455E0,2.130528912E-3,-2.663161140E-3,3.408846259E-2
1.701815666E0,3.728425596E-3,-2.130528912E-3,3.675162420E-2
1.703817072E0,2.663161140E-3,-1.597896684E-3,3.728425503E-2
1.705818400E0,1.597896684E-3,0.000000000E0,3.568635881E-2
1.707819494E0,2.130528912E-3,-1.065264456E-3,3.834952042E-2
1.709821369E0,2.130528912E-3,5.326322280E-4,3.675162420E-2
1.711822306E0,5.326322280E-4,2.663161140E-3,3.834952042E-2
1.713823087E0,1.065264456E-3,1.597896684E-3,3.675162420E-2
1.715824025E0,5.326322280E-3,3.195793368E-3,3.728425503E-2
1.717825158E0,1.597896684E-3,2.130528912E-3,3.515372798E-2
1.719825939E0,2.130528912E-3,3.195793368E-3,3.462109342E-2
1.721827462E0,4.793690052E-3,3.195793368E-3,3.675162420E-2
1.723828361E0,2.130528912E-3,2.130528912E-3,3.195793182E-2
1.725828908E0,3.728425596E-3,1.065264456E-3,3.249056637E-2
1.727828869E0,3.195793368E-3,0.000000000E0,3.089267015E-2
1.729828556E0,3.728425596E-3,-1.597896684E-3,3.142530099E-2
1.731829103E0,3.195793368E-3,-1.597896684E-3,2.822950855E-2
1.733829572E0,1.597896684E-3,-3.195793368E-3,2.716424316E-2
1.735829572E0,2.663161140E-3,-3.728425596E-3,2.556634694E-2
1.737830314E0,2.663161140E-3,-4.793690052E-3,2.609897964E-2
1.739830666E0,2.663161140E-3,-3.728425596E-3,2.503371425E-2
1.741830627E0,5.326322280E-3,-4.261057824E-3,2.343581803E-2
1.743832228E0,3.195793368E-3,-3.195793368E-3,2.290318534E-2
1.745832384E0,4.793690052E-3,-3.728425596E-3,2.077265643E-2
1.747832306E0,3.728425596E-3,-3.195793368E-3,2.077265643E-2
1.749832502E0,2.663161140E-3,-4.261057824E-3,2.024002373E-2
1.751833673E0,2.663161140E-3,-2.663161140E-3,1.917476021E-2
1.753834572E0,3.195793368E-3,-2.663161140E-3,1.757686399E-2
1.755836212E0,3.195793368E-3,-1.597896684E-3,1.651159860E-2
1.757837384E0,5.326322280E-3,-5.326322280E-4,1.544633508E-2
1.759838556E0,3.195793368E-3,-2.130528912E-3,1.438106969E-2
1.761839533E0,5.326322280E-3,0.000000000E0,1.278317347E-2
1.763840353E0,4.793690052E-3,1.597896684E-3,1.225054078E-2
1.765841134E0,3.728425596E-3,5.326322280E-4,9.054748341E-3
1.767841759E0,3.728425596E-3,2.130528912E-3,9.587380104E-3
1.769841994E0,5.326322280E-3,1.065264456E-3,6.924218964E-3
1.771843009E0,3.195793368E-3,3.195793368E-3,7.456851192E-3
1.773843244E0,6.924218964E-3,0.000000000E0,5.326322280E-3
1.775843712E0,4.261057824E-3,1.065264456E-3,4.793690052E-3
1.777844845E0,5.326322280E-3,-5.326322280E-4,1.065264456E-3
1.779845548E0,2.663161140E-3,1.065264456E-3,1.065264456E-3
1.781846056E0,5.858954508E-3,-5.326322280E-4,5.326322280E-4
1.783845470E0,5.326322280E-3,-2.663161140E-3,-1.597896684E-3
1.785845431E0,4.261057824E-3,-1.065264456E-3,-1.597896684E-3
1.787845861E0,4.261057824E-3,-1.065264456E-3,-1.597896684E-3
1.789846994E0,7.456851192E-3,-1.065264456E-3,-3.728425596E-3
1.791848322E0,4.793690052E-3,1.065264456E-3,-4.793690052E-3
1.793850119E0,7.456851192E-3,-2.130528912E-3,-4.261057824E-3
1.795852150E0,5.326322280E-3,-2.130528912E-3,-3.195793368E-3
1.797853166E0,3.728425596E-3,-5.326322280E-4,-4.793690052E-3
1.799853634E0,4.261057824E-3,-2.130528912E-3,-4.261057824E-3
1.801853752E0,5.326322280E-3,2.663161140E-3,-4.261057824E-3
1.803854298E0,4.793690052E-3,1.065264456E-3,-4.793690052E-3
1.805855392E0,4.793690052E-3,1.597896684E-3,-3.728425596E-3
1.807856212E0,4.793690052E-3,2.130528912E-3,-4.793690052E-3
1.809856408E0,2.663161140E-3,2.130528912E-3,-4.261057824E-3
1.811856837E0,4.793690052E-3,3.195793368E-3,-3.728425596E-3
1.813856877E0,2.663161140E-3,2.130528912E-3,-3.195793368E-3
1.815857462E0,4.793690052E-3,3.728425596E-3,-3.728425596E-3
1.817858752E0,3.195793368E-3,5.326322280E-4,-4.261057824E-3
1.819859767E0,5.326322280E-3,1.597896684E-3,-2.663161140E-3
1.821861252E0,4.793690052E-3,1.065264456E-3,-4.261057824E-3
1.823862228E0,5.326322280E-3,3.195793368E-3,-2.663161140E-3
1.825863947E0,5.326322280E-3,0.000000000E0,-3.195793368E-3
1.827865314E0,5.326322280E-3,1.065264456E-3,-2.130528912E-3
1.829866486E0,5.326322280E-3,-5.326322280E-4,-2.663161140E-3
1.831867189E0,5.326322280E-3,5.326322280E-4,-5.326322280E-4
1.833868048E0,5.326322280E-3,0.000000000E0,-1.065264456E-3
1.835868947E0,4.261057824E-3,0.000000000E0,-1.065264456E-3
1.837870627E0,5.858954508E-3,-5.326322280E-4,0.000000000E0
1.839871486E0,5.326322280E-3,1.065264456E-3,5.326322280E-4
1.841873087E0,4.261057824E-3,1.065264456E-3,2.130528912E-3
1.843874845E0,4.793690052E-3,-5.326322280E-4,2.130528912E-3
1.845876486E0,4.793690052E-3,1.065264456E-3,2.130528912E-3
1.847878166E0,1.597896684E-3,1.597896684E-3,4.793690052E-3
1.849879416E0,5.858954508E-3,3.195793368E-3,5.858954508E-3
1.851881212E0,2.663161140E-3,1.065264456E-3,7.456851192E-3
1.853881955E0,5.326322280E-3,2.130528912E-3,9.054748341E-3
1.855883400E0,4.261057824E-3,2.130528912E-3,1.118527725E-2
1.857883752E0,3.195793368E-3,4.793690052E-3,1.171790902E-2
1.859884923E0,4.261057824E-3,1.597896684E-3,1.225054078E-2
1.861885627E0,5.326322280E-3,2.663161140E-3,1.438106969E-2
1.863886447E0,4.261057824E-3,5.326322280E-4,1.597896591E-2
1.865887111E0,5.326322280E-3,0.000000000E0,1.651159860E-2
1.867886837E0,4.261057824E-3,2.130528912E-3,1.651159860E-2
1.869887228E0,3.195793368E-3,-5.326322280E-4,1.864212751E-2
1.871887541E0,3.728425596E-3,1.065264456E-3,2.077265643E-2
1.873887658E0,4.261057824E-3,-5.326322280E-4,2.130528912E-2
1.875888361E0,1.597896684E-3,-5.326322280E-4,2.290318534E-2
1.877889337E0,3.195793368E-3,-1.065264456E-3,2.237055451E-2
1.879889455E0,4.261057824E-3,-5.326322280E-4,2.290318534E-2
1.881889455E0,2.130528912E-3,-1.597896684E-3,2.556634694E-2
1.883889767E0,4.261057824E-3,-2.130528912E-3,2.716424316E-2
1.885888986E0,2.130528912E-3,-3.195793368E-3,2.663161233E-2
1.887889103E0,2.130528912E-3,-1.065264456E-3,2.663161233E-2
1.889889298E0,2.663161140E-3,-1.065264456E-3,2.876213938E-2
1.891889337E0,4.261057824E-3,-1.597896684E-3,2.982740477E-2
1.893889298E0,4.793690052E-3,-2.663161140E-3,2.929477207E-2
1.895889767E0,3.195793368E-3,-1.597896684E-3,2.982740477E-2
1.897890353E0,3.728425596E-3,-1.597896684E-3,2.982740477E-2
1.899890509E0,2.130528912E-3,-1.065264456E-3,3.142530099E-2
1.901891291E0,1.065264456E-3,-5.326322280E-4,2.982740477E-2
1.903891408E0,1.597896684E-3,-1.065264456E-3,3.249056637E-2
1.905892072E0,2.130528912E-3,-5.326322280E-4,3.302319720E-2
1.907892892E0,1.065264456E-3,1.065264456E-3,3.408846259E-2
1.909893556E0,4.793690052E-3,1.065264456E-3,3.355583176E-2
1.911894728E0,4.793690052E-3,-2.663161140E-3,3.462109342E-2
1.913895509E0,2.663161140E-3,1.597896684E-3,3.568635881E-2
1.915896525E0,3.728425596E-3,1.065264456E-3,3.355583176E-2
1.917897619E0,3.195793368E-3,-1.065264456E-3,3.462109342E-2
1.919899103E0,3.195793368E-3,1.597896684E-3,3.249056637E-2
1.921899650E0,2.130528912E-3,-5.326322280E-4,3.302319720E-2
1.923900822E0,3.195793368E-3,-2.130528912E-3,3.142530099E-2
1.925902228E0,2.130528912E-3,-1.597896684E-3,3.355583176E-2
1.927903752E0,1.597896684E-3,-5.326322280E-4,3.249056637E-2
1.929905080E0,4.261057824E-3,-2.130528912E-3,3.302319720E-2
1.931906994E0,3.195793368E-3,-1.597896684E-3,3.036003746E-2
1.933908830E0,1.065264456E-3,-2.663161140E-3,2.876213938E-2
1.935911212E0,5.858954508E-3,-1.597896684E-3,2.982740477E-2
1.937913595E0,4.793690052E-3,-3.728425596E-3,2.876213938E-2
1.939915002E0,2.663161140E-3,-1.597896684E-3,2.876213938E-2
1.941917111E0,2.663161140E-3,-3.195793368E-3,2.663161233E-2
1.943919103E0,3.195793368E-3,-4.793690052E-3,2.396845073E-2
1.945922033E0,3.195793368E-3,-5.326322280E-4,2.503371425E-2
1.947923752E0,4.261057824E-3,-2.663161140E-3,2.237055451E-2
1.949924845E0,2.130528912E-3,-3.195793368E-3,2.343581803E-2
1.951925783E0,3.728425596E-3,-2.663161140E-3,2.237055451E-2
1.953926564E0,2.130528912E-3,-3.195793368E-3,1.970739290E-2
1.955927072E0,3.728425596E-3,-2.130528912E-3,1.864212751E-2
1.957927384E0,2.663161140E-3,5.326322280E-4,1.810949668E-2
1.959927072E0,2.663161140E-3,-1.597896684E-3,1.757686399E-2
1.961927189E0,3.195793368E-3,-5.326322280E-4,1.597896591E-2
1.963927580E0,3.728425596E-3,-1.597896684E-3,1.491370238E-2
1.965928127E0,4.261057824E-3,-1.597896684E-3,1.331580617E-2
1.967928791E0,4.261057824E-3,5.326322280E-4,1.118527725E-2
1.969929337E0,2.130528912E-3,-1.065264456E-3,1.012001187E-2
1.971929962E0,5.326322280E-3,0.000000000E0,6.391586736E-3
1.973930158E0,3.728425596E-3,2.130528912E-3,6.391586736E-3
1.975929923E0,2.663161140E-3,0.000000000E0,2.663161140E-3
1.977930431E0,6.924218964E-3,1.597896684E-3,0.000000000E0
1.979929884E0,5.326322280E-3,3.728425596E-3,-2.130528912E-3
1.981929337E0,5.858954508E-3,2.130528912E-3,-2.663161140E-3
1.983930080E0,5.858954508E-3,4.793690052E-3,-5.326322280E-3
1.985930627E0,6.391586736E-3,4.261057824E-3,-8.522115648E-3
1.987930666E0,7.989482954E-3,7.456851192E-3,-1.225054078E-2
1.989930392E0,7.456851192E-3,6.391586736E-3,-1.331580617E-2
1.991929962E0,6.391586736E-3,8.522115648E-3,-1.544633508E-2
1.993929337E0,4.793690052E-3,7.456851192E-3,-2.024002373E-2
1.995928127E0,6.924218964E-3,7.456851192E-3,-2.183792181E-2
1.997927541E0,7.456851192E-3,6.924218964E-3,-1.917476021E-2
1.999926525E0,4.793690052E-3,4.793690052E-3,-2.343581803E-2
2.001926447E0,6.391586736E-3,5.326322280E-3,-2.556634694E-2
2.003926408E0,6.924218964E-3,4.261057824E-3,-2.503371425E-2
2.005927541E0,7.456851192E-3,5.858954508E-3,-2.716424316E-2
2.007928205E0,8.522115648E-3,2.663161140E-3,-2.822950855E-2
2.009929337E0,5.858954508E-3,1.065264456E-3,-2.982740477E-2
2.011929923E0,6.924218964E-3,1.065264456E-3,-3.142530099E-2
2.013929728E0,6.391586736E-3,0.000000000E0,-3.036003746E-2
2.015928244E0,8.522115648E-3,-1.065264456E-3,-3.302319720E-2
2.017927072E0,6.391586736E-3,5.326322280E-4,-3.408846259E-2
2.019926916E0,7.456851192E-3,-5.326322280E-4,-3.408846259E-2
2.021926486E0,9.054748341E-3,-2.130528912E-3,-3.355583176E-2
2.023926603E0,7.989482954E-3,-3.195793368E-3,-3.462109342E-2
2.025927033E0,7.456851192E-3,-5.326322280E-4,-3.675162420E-2
2.027927033E0,7.989482954E-3,2.663161140E-3,-3.568635881E-2
2.029927267E0,6.924218964E-3,3.195793368E-3,-3.675162420E-2
2.031927462E0,9.587380104E-3,4.793690052E-3,-3.781688958E-2
2.033928947E0,9.054748341E-3,5.858954508E-3,-3.781688958E-2
2.035930041E0,9.054748341E-3,7.989482954E-3,-3.834952042E-2
2.037930900E0,7.456851192E-3,9.587380104E-3,-3.834952042E-2
2.039931603E0,8.522115648E-3,9.054748341E-3,-3.834952042E-2
2.041933478E0,7.989482954E-3,9.054748341E-3,-3.728425503E-2
2.043935236E0,7.989482954E-3,8.522115648E-3,-3.621899337E-2
2.045936877E0,7.456851192E-3,8.522115648E-3,-3.355583176E-2
2.047938244E0,7.989482954E-3,9.054748341E-3,-3.195793182E-2
2.049938947E0,5.858954508E-3,6.391586736E-3,-3.249056637E-2
2.051939533E0,9.054748341E-3,4.793690052E-3,-3.142530099E-2
2.053939416E0,8.522115648E-3,6.391586736E-3,-2.876213938E-2
2.055940431E0,8.522115648E-3,2.663161140E-3,-2.822950855E-2
2.057940861E0,8.522115648E-3,2.663161140E-3,-2.769687586E-2
2.059941955E0,5.326322280E-3,2.663161140E-3,-2.556634694E-2
2.061943009E0,6.924218964E-3,2.130528912E-3,-2.450108156E-2
2.063943908E0,5.858954508E-3,5.326322280E-4,-2.290318534E-2
2.065943712E0,7.456851192E-3,5.326322280E-4,-2.024002373E-2
2.067942462E0,6.924218964E-3,1.597896684E-3,-1.757686399E-2
2.069941369E0,5.326322280E-3,3.728425596E-3,-1.651159860E-2
2.071940783E0,7.456851192E-3,3.728425596E-3,-1.491370238E-2
2.073941212E0,9.587380104E-3,1.597896684E-3,-1.012001187E-2
2.075941720E0,6.924218964E-3,4.261057824E-3,-8.522115648E-3
2.077941603E0,5.326322280E-3,4.261057824E-3,-6.391586736E-3
2.079941525E0,5.326322280E-3,3.728425596E-3,-5.326322280E-3
2.081941642E0,4.261057824E-3,6.391586736E-3,-3.195793368E-3
2.083941955E0,6.391586736E-3,5.326322280E-3,-1.065264456E-3
2.085942502E0,5.326322280E-3,6.924218964E-3,1.065264456E-3
2.087942853E0,6.391586736E-3,4.261057824E-3,5.858954508E-3
2.089943087E0,4.793690052E-3,5.858954508E-3,5.326322280E-3
2.091943634E0,6.391586736E-3,3.728425596E-3,7.989482954E-3
2.093944064E0,5.326322280E-3,4.793690052E-3,1.118527725E-2
2.095945392E0,5.326322280E-3,2.663161140E-3,1.491370238E-2
2.097946212E0,3.195793368E-3,5.326322280E-4,1.597896591E-2
2.099947033E0,3.195793368E-3,5.326322280E-4,2.024002373E-2
2.101947619E0,2.130528912E-3,-2.663161140E-3,2.237055451E-2
2.103949650E0,5.326322280E-3,-2.663161140E-3,2.343581803E-2
2.105950314E0,3.195793368E-3,-3.728425596E-3,2.716424316E-2
2.107951603E0,2.663161140E-3,-6.924218964E-3,2.876213938E-2
2.109952189E0,4.261057824E-3,-6.924218964E-3,3.302319720E-2
2.111953283E0,1.597896684E-3,-7.989482954E-3,3.462109342E-2
2.113953752E0,3.728425596E-3,-1.012001187E-2,3.834952042E-2
2.115953908E0,2.663161140E-3,-9.587380104E-3,4.101268202E-2
2.117953283E0,5.326322280E-4,-1.118527725E-2,4.367584363E-2
2.119953986E0,2.130528912E-3,-1.065264456E-2,4.261057824E-2
2.121954103E0,3.195793368E-3,-7.456851192E-3,4.740426689E-2
2.123954103E0,1.597896684E-3,-6.924218964E-3,4.846953228E-2
2.125954728E0,3.195793368E-3,-5.858954508E-3,5.006742850E-2
2.127955197E0,0.000000000E0,-4.793690052E-3,5.273059011E-2
2.129956056E0,5.326322280E-4,-2.130528912E-3,5.539375171E-2
2.131957189E0,1.065264456E-3,-1.065264456E-3,5.805691332E-2
2.133957814E0,2.130528912E-3,1.597896684E-3,5.858954415E-2
2.135958595E0,1.597896684E-3,1.597896684E-3,6.072007492E-2
2.137958673E0,2.663161140E-3,4.261057824E-3,6.125270575E-2
2.139958361E0,1.597896684E-3,3.195793368E-3,6.231797114E-2
2.141958634E0,5.326322280E-4,3.195793368E-3,6.498113275E-2
2.143960158E0,-5.326322280E-4,3.728425596E-3,6.444849819E-2
2.145961369E0,5.326322280E-4,4.261057824E-3,6.604639441E-2
2.147962853E0,5.326322280E-4,1.597896684E-3,6.551376730E-2
2.149963634E0,5.326322280E-4,1.597896684E-3,6.817692518E-2
2.151964689E0,0.000000000E0,0.000000000E0,6.870955974E-2
2.153965587E0,-1.597896684E-3,-5.326322280E-4,6.924218684E-2
2.155967306E0,0.000000000E0,-2.663161140E-3,7.030745596E-2
2.157967775E0,-5.326322280E-4,-4.793690052E-3,6.977482140E-2
2.159968400E0,-3.728425596E-3,-6.924218964E-3,6.977482140E-2
2.161968634E0,-1.597896684E-3,-5.326322280E-3,7.030745596E-2
2.163969064E0,-2.130528912E-3,-6.924218964E-3,6.977482140E-2
2.165969845E0,-1.065264456E-3,-7.989482954E-3,6.817692518E-2
2.167969728E0,-1.065264456E-3,-8.522115648E-3,6.817692518E-2
2.169969377E0,-5.326322280E-4,-7.456851192E-3,6.817692518E-2
2.171969337E0,-1.065264456E-3,-9.587380104E-3,6.657902896E-2
2.173970080E0,5.326322280E-4,-4.261057824E-3,6.285060197E-2
2.175971408E0,0.000000000E0,-7.456851192E-3,6.231797114E-2
2.177972072E0,5.326322280E-4,-2.663161140E-3,6.178534031E-2
2.179973048E0,0.000000000E0,-3.728425596E-3,5.912217870E-2
2.181973361E0,1.065264456E-3,-5.326322280E-4,5.912217870E-2
2.183974416E0,2.130528912E-3,1.065264456E-3,5.805691332E-2
2.185974337E0,5.326322280E-4,5.326322280E-4,5.539375171E-2
2.187973127E0,1.597896684E-3,2.130528912E-3,5.486112088E-2
2.189973400E0,1.065264456E-3,5.326322280E-3,5.113269389E-2
2.191973712E0,2.130528912E-3,1.597896684E-3,5.006742850E-2
2.193975353E0,5.326322280E-4,4.261057824E-3,4.633900523E-2
2.195976173E0,3.195793368E-3,4.261057824E-3,4.527373984E-2
2.197977150E0,2.663161140E-3,3.195793368E-3,4.207794741E-2
2.199977853E0,1.065264456E-3,1.597896684E-3,3.941478580E-2
2.201979650E0,1.065264456E-3,5.326322280E-4,3.781688958E-2
2.203981798E0,3.195793368E-3,-1.065264456E-3,3.675162420E-2
2.205984181E0,1.065264456E-3,-4.793690052E-3,3.568635881E-2
2.207985822E0,3.728425596E-3,-6.391586736E-3,3.142530099E-2
2.209987306E0,1.597896684E-3,-7.989482954E-3,2.982740477E-2
2.211988791E0,2.130528912E-3,-7.989482954E-3,2.822950855E-2
2.213989533E0,2.130528912E-3,-7.989482954E-3,2.450108156E-2
2.215990783E0,1.597896684E-3,-1.118527725E-2,2.343581803E-2
2.217992033E0,2.130528912E-3,-1.225054078E-2,2.077265643E-2
2.219993283E0,2.130528912E-3,-9.587380104E-3,1.757686399E-2
2.221993830E0,2.130528912E-3,-1.065264456E-2,1.651159860E-2
2.223994806E0,3.195793368E-3,-9.054748341E-3,1.438106969E-2
2.225995666E0,3.728425596E-3,-1.012001187E-2,1.225054078E-2
2.227996486E0,3.195793368E-3,-7.456851192E-3,8.522115648E-3
2.229997931E0,4.261057824E-3,-5.326322280E-3,8.522115648E-3
2.231999416E0,3.728425596E-3,-2.130528912E-3,4.793690052E-3
2.234001408E0,5.858954508E-3,-1.065264456E-3,3.728425596E-3
2.236003556E0,4.793690052E-3,1.597896684E-3,1.597896684E-3
2.238005041E0,5.858954508E-3,6.924218964E-3,-1.597896684E-3
2.240006681E0,6.391586736E-3,9.587380104E-3,-3.195793368E-3
2.242008478E0,6.391586736E-3,1.012001187E-2,-5.326322280E-3
2.244009494E0,4.261057824E-3,1.118527725E-2,-6.391586736E-3
2.246010197E0,7.456851192E-3,1.225054078E-2,-8.522115648E-3
2.248011408E0,5.326322280E-3,1.171790902E-2,-1.118527725E-2
2.250013009E0,8.522115648E-3,1.491370238E-2,-1.225054078E-2
2.252014298E0,6.924218964E-3,1.171790902E-2,-1.225054078E-2
2.254015392E0,5.858954508E-3,9.587380104E-3,-1.544633508E-2
2.256016291E0,6.391586736E-3,7.456851192E-3,-1.544633508E-2
2.258017853E0,7.989482954E-3,5.326322280E-3,-1.651159860E-2
2.260018869E0,6.391586736E-3,0.000000000E0,-1.651159860E-2
2.262019767E0,6.924218964E-3,1.065264456E-3,-1.757686399E-2
2.264021095E0,6.924218964E-3,-2.130528912E-3,-1.810949668E-2
2.266022931E0,6.391586736E-3,-1.597896684E-3,-1.810949668E-2
2.268024142E0,6.391586736E-3,-6.924218964E-3,-1.864212751E-2
2.270024298E0,5.858954508E-3,-5.858954508E-3,-1.810949668E-2
2.272024142E0,6.391586736E-3,-9.587380104E-3,-1.810949668E-2
2.274024806E0,5.858954508E-3,-7.989482954E-3,-2.024002373E-2
2.276025197E0,6.924218964E-3,-9.054748341E-3,-1.917476021E-2
2.278025900E0,5.858954508E-3,-7.456851192E-3,-1.917476021E-2
2.280026603E0,7.989482954E-3,-6.391586736E-3,-1.757686399E-2
2.282027541E0,5.326322280E-3,-6.391586736E-3,-1.917476021E-2
2.284027658E0,6.924218964E-3,-4.793690052E-3,-1.970739290E-2
2.286028478E0,5.858954508E-3,-3.195793368E-3,-1.810949668E-2
2.288029494E0,6.391586736E-3,-4.261057824E-3,-1.757686399E-2
2.290030119E0,6.391586736E-3,-3.195793368E-3,-1.651159860E-2
2.292031564E0,8.522115648E-3,-3.195793368E-3,-1.597896591E-2
2.294032853E0,6.924218964E-3,5.326322280E-4,-1.438106969E-2
2.296033752E0,7.456851192E-3,0.000000000E0,-1.384843793E-2
2.298035236E0,5.858954508E-3,0.000000000E0,-1.384843793E-2
2.300035236E0,6.924218964E-3,1.597896684E-3,-1.171790902E-2
2.302035470E0,7.456851192E-3,-3.195793368E-3,-9.587380104E-3
2.304035861E0,5.326322280E-3,0.000000000E0,-1.012001187E-2
2.306035236E0,5.858954508E-3,1.065264456E-3,-1.012001187E-2
2.308033439E0,4.261057824E-3,-1.597896684E-3,-8.522115648E-3
2.310033869E0,5.326322280E-3,-3.195793368E-3,-6.391586736E-3
2.312034650E0,2.663161140E-3,-3.728425596E-3,-4.793690052E-3
2.314034455E0,5.326322280E-3,-3.728425596E-3,-5.858954508E-3
2.316034884E0,4.793690052E-3,-4.261057824E-3,-1.065264456E-3
2.318036408E0,5.326322280E-3,-5.858954508E-3,-2.130528912E-3
2.320037502E0,5.326322280E-3,-2.663161140E-3,-5.326322280E-4
2.322038673E0,3.728425596E-3,-4.261057824E-3,1.597896684E-3
2.324040002E0,4.261057824E-3,-2.663161140E-3,2.663161140E-3
2.326041642E0,2.663161140E-3,-3.728425596E-3,5.326322280E-3
2.328042814E0,3.195793368E-3,-1.597896684E-3,7.456851192E-3
2.330043556E0,3.728425596E-3,-1.597896684E-3,9.054748341E-3
2.332044142E0,2.663161140E-3,-5.326322280E-4,9.587380104E-3
2.334044884E0,0.000000000E0,-1.065264456E-3,1.118527725E-2
2.336044845E0,3.195793368E-3,-1.065264456E-3,1.065264456E-2
2.338044767E0,3.195793368E-3,0.000000000E0,1.331580617E-2
2.340044767E0,3.728425596E-3,1.065264456E-3,1.544633508E-2
2.342044962E0,2.130528912E-3,-1.065264456E-3,1.438106969E-2
2.344045783E0,1.597896684E-3,-5.326322280E-4,1.597896591E-2
2.346046369E0,3.728425596E-3,5.326322280E-4,1.704423130E-2
2.348046408E0,1.065264456E-3,-1.597896684E-3,1.704423130E-2
2.350045666E0,2.130528912E-3,-1.065264456E-3,1.810949668E-2
2.352045041E0,2.663161140E-3,-3.195793368E-3,1.970739290E-2
2.354045041E0,2.130528912E-3,-1.597896684E-3,1.864212751E-2
2.356044103E0,4.261057824E-3,-4.261057824E-3,1.864212751E-2
2.358043673E0,-1.065264456E-3,-2.130528912E-3,2.024002373E-2
2.360042423E0,2.130528912E-3,-3.195793368E-3,1.970739290E-2
2.362041877E0,1.065264456E-3,-1.065264456E-3,2.130528912E-2
2.364041759E0,0.000000000E0,0.000000000E0,2.077265643E-2
2.366041955E0,0.000000000E0,1.597896684E-3,2.024002373E-2
2.368042423E0,2.130528912E-3,4.261057824E-3,2.183792181E-2
2.370042658E0,2.130528912E-3,3.728425596E-3,1.970739290E-2
2.372043478E0,0.000000000E0,6.391586736E-3,1.864212751E-2
2.374044181E0,2.130528912E-3,9.587380104E-3,1.917476021E-2
2.376044962E0,2.130528912E-3,9.054748341E-3,2.130528912E-2
2.378046212E0,1.065264456E-3,1.331580617E-2,1.970739290E-2
2.380046525E0,4.261057824E-3,1.225054078E-2,2.130528912E-2
2.382047384E0,2.130528912E-3,1.544633508E-2,1.970739290E-2
2.384047462E0,2.130528912E-3,1.544633508E-2,2.077265643E-2
2.386046994E0,2.130528912E-3,1.704423130E-2,1.810949668E-2
2.388046798E0,2.663161140E-3,1.438106969E-2,2.024002373E-2
2.390047502E0,1.597896684E-3,1.544633508E-2,1.757686399E-2
2.392049064E0,3.195793368E-3,1.278317347E-2,1.810949668E-2
2.394049845E0,3.728425596E-3,1.012001187E-2,1.810949668E-2
2.396051134E0,2.663161140E-3,1.118527725E-2,1.704423130E-2
2.398052814E0,2.663161140E-3,7.989482954E-3,1.544633508E-2
2.400054103E0,1.597896684E-3,6.924218964E-3,1.491370238E-2
2.402053712E0,2.663161140E-3,3.195793368E-3,1.438106969E-2
2.404053712E0,2.130528912E-3,4.261057824E-3,1.491370238E-2
2.406054337E0,2.663161140E-3,5.326322280E-4,1.438106969E-2
2.408054728E0,5.326322280E-4,0.000000000E0,1.065264456E-2
2.410056173E0,3.728425596E-3,-1.597896684E-3,9.587380104E-3
2.412056564E0,1.065264456E-3,-3.728425596E-3,1.118527725E-2
2.414057658E0,2.130528912E-3,-2.663161140E-3,9.054748341E-3
2.416058830E0,2.663161140E-3,-2.663161140E-3,6.924218964E-3
2.418059181E0,3.728425596E-3,-3.728425596E-3,6.391586736E-3
2.420059923E0,5.326322280E-4,-5.326322280E-3,6.924218964E-3
2.422060939E0,1.065264456E-3,-4.261057824E-3,4.793690052E-3
2.424062814E0,3.195793368E-3,-4.261057824E-3,5.326322280E-3
2.426064025E0,1.597896684E-3,-4.793690052E-3,2.130528912E-3
2.428065275E0,2.130528912E-3,-2.663161140E-3,1.597896684E-3
2.430065978E0,5.326322280E-3,-2.663161140E-3,-5.326322280E-4
2.432067619E0,3.195793368E-3,-1.597896684E-3,-1.065264456E-3
2.434069455E0,2.663161140E-3,-1.065264456E-3,-1.065264456E-3
2.436070236E0,4.261057824E-3,0.000000000E0,0.000000000E0
2.438070119E0,3.195793368E-3,5.326322280E-4,-2.130528912E-3
2.440070744E0,4.793690052E-3,2.663161140E-3,-3.195793368E-3
2.442071447E0,4.261057824E-3,-1.065264456E-3,-4.793690052E-3
2.444072072E0,4.261057824E-3,5.326322280E-4,-5.858954508E-3
2.446072033E0,4.261057824E-3,5.326322280E-4,-6.391586736E-3
2.448071837E0,5.858954508E-3,5.326322280E-4,-6.391586736E-3
2.450071642E0,3.195793368E-3,1.597896684E-3,-8.522115648E-3
2.452071642E0,7.456851192E-3,5.326322280E-4,-1.012001187E-2
2.454072423E0,4.793690052E-3,-1.065264456E-3,-1.118527725E-2
2.456073166E0,6.391586736E-3,-1.065264456E-3,-1.384843793E-2
2.458073048E0,2.663161140E-3,-3.195793368E-3,-1.438106969E-2
2.460072775E0,5.858954508E-3,-1.065264456E-3,-1.597896591E-2
2.462072189E0,3.195793368E-3,-3.195793368E-3,-1.704423130E-2
2.464072423E0,5.326322280E-3,-4.793690052E-3,-1.917476021E-2
2.466073595E0,3.195793368E-3,-4.261057824E-3,-1.757686399E-2
2.468073595E0,4.793690052E-3,-4.261057824E-3,-1.864212751E-2
2.470073791E0,3.195793368E-3,-3.195793368E-3,-2.024002373E-2
2.472073986E0,6.391586736E-3,-5.326322280E-4,-2.077265643E-2
2.474075744E0,5.326322280E-3,-2.130528912E-3,-2.290318534E-2
2.476076447E0,6.924218964E-3,-2.130528912E-3,-2.237055451E-2
2.478076447E0,4.261057824E-3,-2.130528912E-3,-2.237055451E-2
2.480076837E0,4.793690052E-3,-5.326322280E-4,-2.450108156E-2
2.482077423E0,5.858954508E-3,-2.130528912E-3,-2.609897964E-2
2.484078009E0,6.924218964E-3,-1.065264456E-3,-2.663161233E-2
2.486078283E0,4.261057824E-3,-2.130528912E-3,-2.609897964E-2
2.488078400E0,8.522115648E-3,1.065264456E-3,-2.503371425E-2
2.490079025E0,4.261057824E-3,1.597896684E-3,-2.609897964E-2
2.492079806E0,6.924218964E-3,1.597896684E-3,-2.609897964E-2
2.494080900E0,9.054748341E-3,2.130528912E-3,-2.769687586E-2
2.496081447E0,6.391586736E-3,2.663161140E-3,-2.822950855E-2
2.498081095E0,6.391586736E-3,4.793690052E-3,-2.822950855E-2
2.500081095E0,6.391586736E-3,5.858954508E-3,-2.609897964E-2
2.502081642E0,5.858954508E-3,8.522115648E-3,-2.716424316E-2
2.504081447E0,5.858954508E-3,1.012001187E-2,-2.769687586E-2
2.506080978E0,7.456851192E-3,9.587380104E-3,-2.822950855E-2
2.508081017E0,6.924218964E-3,1.065264456E-2,-2.663161233E-2
2.510080666E0,7.989482954E-3,1.278317347E-2,-2.503371425E-2
2.512079689E0,7.989482954E-3,1.438106969E-2,-2.556634694E-2
2.514079572E0,6.924218964E-3,1.065264456E-2,-2.609897964E-2
2.516079337E0,5.326322280E-3,1.278317347E-2,-2.450108156E-2
2.518079298E0,7.456851192E-3,1.171790902E-2,-2.396845073E-2
2.520079923E0,5.858954508E-3,1.225054078E-2,-2.343581803E-2
2.522081056E0,7.456851192E-3,1.118527725E-2,-2.130528912E-2
2.524081525E0,4.261057824E-3,9.054748341E-3,-1.917476021E-2
2.526082697E0,5.858954508E-3,5.858954508E-3,-1.970739290E-2
2.528083322E0,5.858954508E-3,5.326322280E-3,-1.597896591E-2
2.530083712E0,7.456851192E-3,3.195793368E-3,-1.384843793E-2
2.532083127E0,5.858954508E-3,3.195793368E-3,-1.384843793E-2
2.534083009E0,3.728425596E-3,-3.195793368E-3,-1.225054078E-2
2.536083087E0,3.728425596E-3,-1.065264456E-3,-1.012001187E-2
2.538082853E0,5.858954508E-3,-3.195793368E-3,-7.989482954E-3
2.540083283E0,3.728425596E-3,-2.663161140E-3,-5.858954508E-3
2.542084025E0,2.663161140E-3,-2.663161140E-3,-3.728425596E-3
2.544084377E0,5.326322280E-3,-1.597896684E-3,-1.065264456E-3
2.546084533E0,3.195793368E-3,-2.663161140E-3,-1.597896684E-3
2.548085002E0,1.597896684E-3,-3.195793368E-3,0.000000000E0
2.550085158E0,2.130528912E-3,-1.597896684E-3,2.663161140E-3
2.552085822E0,2.663161140E-3,5.326322280E-4,3.728425596E-3
2.554085548E0,2.130528912E-3,1.065264456E-3,4.261057824E-3
2.556086252E0,4.261057824E-3,3.728425596E-3,6.924218964E-3
2.558087814E0,4.261057824E-3,2.130528912E-3,7.456851192E-3
2.560088947E0,3.728425596E-3,3.195793368E-3,1.065264456E-2
2.562088986E0,2.130528912E-3,5.326322280E-3,1.171790902E-2
2.564088322E0,4.261057824E-3,3.728425596E-3,1.384843793E-2
2.566087931E0,2.663161140E-3,2.130528912E-3,1.278317347E-2
2.568088009E0,2.663161140E-3,3.728425596E-3,1.544633508E-2
2.570089064E0,2.663161140E-3,2.130528912E-3,1.651159860E-2
2.572090275E0,5.326322280E-4,1.597896684E-3,1.544633508E-2
2.574091877E0,5.326322280E-4,1.597896684E-3,1.970739290E-2
2.576093439E0,5.326322280E-4,-1.065264456E-3,1.970739290E-2
2.578095119E0,2.663161140E-3,-3.195793368E-3,2.183792181E-2
2.580095861E0,5.326322280E-4,-3.195793368E-3,2.290318534E-2
2.582096330E0,-1.065264456E-3,-5.326322280E-3,2.450108156E-2
2.584097384E0,5.326322280E-4,-8.522115648E-3,2.396845073E-2
2.586098556E0,5.326322280E-4,-7.456851192E-3,2.503371425E-2
2.588099259E0,5.326322280E-4,-8.522115648E-3,2.609897964E-2
2.590100236E0,-1.065264456E-3,-1.118527725E-2,2.876213938E-2
2.592101056E0,-5.326322280E-4,-1.065264456E-2,2.822950855E-2
2.594101916E0,-5.326322280E-4,-1.225054078E-2,2.982740477E-2
2.596103087E0,0.000000000E0,-1.065264456E-2,3.089267015E-2
2.598104298E0,-1.597896684E-3,-9.054748341E-3,2.982740477E-2
2.600104962E0,0.000000000E0,-6.924218964E-3,3.089267015E-2
2.602105041E0,-1.597896684E-3,-7.456851192E-3,3.142530099E-2
2.604105587E0,-5.326322280E-4,-6.391586736E-3,3.036003746E-2
2.606106642E0,-1.065264456E-3,-4.261057824E-3,3.142530099E-2
2.608107697E0,-5.326322280E-4,-4.793690052E-3,3.249056637E-2
2.610109142E0,5.326322280E-4,-3.728425596E-3,3.249056637E-2
2.612109845E0,-5.326322280E-4,-1.597896684E-3,3.089267015E-2
2.614110080E0,5.326322280E-4,-2.663161140E-3,3.142530099E-2
2.616110627E0,1.065264456E-3,-2.130528912E-3,3.089267015E-2
2.618111134E0,-1.065264456E-3,-5.326322280E-4,3.249056637E-2
2.620111720E0,-3.195793368E-3,-1.597896684E-3,3.089267015E-2
2.622112423E0,-1.597896684E-3,-2.130528912E-3,3.036003746E-2
2.624113439E0,-2.130528912E-3,-3.195793368E-3,3.195793182E-2
2.626113673E0,0.000000000E0,-3.195793368E-3,3.089267015E-2
2.628113400E0,1.065264456E-3,-5.326322280E-3,3.089267015E-2
2.630112931E0,-1.065264456E-3,-5.326322280E-3,2.982740477E-2
2.632111564E0,-1.597896684E-3,-7.456851192E-3,2.929477207E-2
2.634110900E0,1.065264456E-3,-3.728425596E-3,2.769687586E-2
2.636110900E0,-1.065264456E-3,-5.326322280E-3,2.769687586E-2
2.638110627E0,0.000000000E0,-2.663161140E-3,2.876213938E-2
2.640111173E0,1.065264456E-3,-5.326322280E-3,2.769687586E-2
2.642111720E0,-1.597896684E-3,-4.261057824E-3,2.716424316E-2
2.644112345E0,-1.065264456E-3,-1.065264456E-3,2.716424316E-2
2.646112970E0,1.065264456E-3,0.000000000E0,2.556634694E-2
2.648114611E0,1.065264456E-3,1.065264456E-3,2.503371425E-2
2.650116837E0,1.597896684E-3,4.261057824E-3,2.290318534E-2
2.652118400E0,2.663161140E-3,6.391586736E-3,2.503371425E-2
2.654121408E0,5.326322280E-4,7.456851192E-3,2.290318534E-2
2.656122423E0,3.195793368E-3,7.456851192E-3,2.290318534E-2
2.658123673E0,-5.326322280E-4,7.456851192E-3,2.183792181E-2
2.660125002E0,5.326322280E-4,8.522115648E-3,2.077265643E-2
2.662126681E0,2.663161140E-3,9.054748341E-3,2.024002373E-2
2.664128048E0,0.000000000E0,5.858954508E-3,1.864212751E-2
2.666128908E0,2.663161140E-3,5.858954508E-3,1.970739290E-2
2.668130275E0,3.195793368E-3,5.326322280E-3,1.651159860E-2
2.670130978E0,1.065264456E-3,5.326322280E-3,1.651159860E-2
2.672131252E0,1.597896684E-3,2.663161140E-3,1.544633508E-2
2.674131603E0,2.663161140E-3,1.597896684E-3,1.491370238E-2
2.676131564E0,1.597896684E-3,-5.326322280E-4,1.384843793E-2
2.678131759E0,1.065264456E-3,-1.597896684E-3,1.225054078E-2
2.680131955E0,2.663161140E-3,-4.261057824E-3,1.225054078E-2
2.682133087E0,5.326322280E-4,-2.663161140E-3,1.171790902E-2
2.684133634E0,2.130528912E-3,-6.391586736E-3,1.118527725E-2
2.686134416E0,1.065264456E-3,-2.130528912E-3,1.012001187E-2
2.688134806E0,1.597896684E-3,-7.456851192E-3,9.054748341E-3
2.690135470E0,3.195793368E-3,-5.858954508E-3,7.456851192E-3
2.692136017E0,4.793690052E-3,-4.793690052E-3,9.054748341E-3
2.694136291E0,3.195793368E-3,-3.728425596E-3,6.924218964E-3
2.696136095E0,2.663161140E-3,-4.793690052E-3,3.728425596E-3
2.698136212E0,3.195793368E-3,-4.261057824E-3,5.326322280E-3
2.700136212E0,1.597896684E-3,-4.793690052E-3,3.728425596E-3
2.702136408E0,3.195793368E-3,-1.065264456E-3,1.597896684E-3
2.704136837E0,5.326322280E-3,-3.728425596E-3,2.663161140E-3
2.706136837E0,3.195793368E-3,-5.326322280E-4,1.597896684E-3
2.708137033E0,4.793690052E-3,-2.130528912E-3,2.130528912E-3
2.710137814E0,3.728425596E-3,-2.663161140E-3,0.000000000E0
2.712138205E0,2.130528912E-3,-3.195793368E-3,-2.130528912E-3
2.714139220E0,4.261057824E-3,-2.130528912E-3,-2.663161140E-3
2.716140431E0,1.065264456E-3,-4.261057824E-3,-3.728425596E-3
2.718141408E0,3.728425596E-3,-4.793690052E-3,-4.793690052E-3
2.720142189E0,2.663161140E-3,-5.326322280E-3,-6.391586736E-3
2.722142619E0,5.326322280E-3,-6.391586736E-3,-7.456851192E-3
2.724142384E0,5.326322280E-3,-5.858954508E-3,-7.456851192E-3
2.726142658E0,3.195793368E-3,-6.391586736E-3,-1.065264456E-2
2.728142658E0,4.793690052E-3,-6.924218964E-3,-9.054748341E-3
2.730142580E0,5.326322280E-3,-6.924218964E-3,-9.587380104E-3
2.732142345E0,4.261057824E-3,-7.456851192E-3,-1.118527725E-2
2.734142150E0,3.728425596E-3,-7.456851192E-3,-1.384843793E-2
2.736142502E0,5.326322280E-3,-4.793690052E-3,-1.491370238E-2
2.738142775E0,4.261057824E-3,-6.391586736E-3,-1.597896591E-2
2.740142658E0,3.728425596E-3,-4.793690052E-3,-1.384843793E-2
2.742144259E0,5.326322280E-3,-5.858954508E-3,-1.651159860E-2
2.744144728E0,4.793690052E-3,-2.663161140E-3,-1.651159860E-2
2.746144533E0,3.195793368E-3,-2.130528912E-3,-1.864212751E-2
2.748145353E0,5.326322280E-3,-1.597896684E-3,-1.917476021E-2
2.750146525E0,5.326322280E-3,5.326322280E-4,-1.864212751E-2
2.752147150E0,6.391586736E-3,2.130528912E-3,-2.024002373E-2
2.754148009E0,5.858954508E-3,1.597896684E-3,-2.237055451E-2
2.756148400E0,5.326322280E-3,2.130528912E-3,-2.183792181E-2
2.758149377E0,6.391586736E-3,5.326322280E-3,-2.290318534E-2
2.760150041E0,4.793690052E-3,6.391586736E-3,-2.290318534E-2
2.762150939E0,7.456851192E-3,2.663161140E-3,-2.290318534E-2
2.764151017E0,6.924218964E-3,4.261057824E-3,-2.290318534E-2
2.766150861E0,6.391586736E-3,3.195793368E-3,-2.450108156E-2
2.768150470E0,6.391586736E-3,2.663161140E-3,-2.716424316E-2
2.770150470E0,4.261057824E-3,1.597896684E-3,-2.450108156E-2
2.772151486E0,5.858954508E-3,2.663161140E-3,-2.556634694E-2
2.774152228E0,4.261057824E-3,-1.597896684E-3,-2.822950855E-2
2.776152345E0,5.326322280E-3,1.065264456E-3,-2.716424316E-2
2.778152814E0,5.326322280E-3,-1.065264456E-3,-2.929477207E-2
2.780153595E0,4.261057824E-3,-5.326322280E-4,-2.769687586E-2
2.782153595E0,4.793690052E-3,-2.663161140E-3,-2.769687586E-2
2.784153400E0,6.391586736E-3,-4.261057824E-3,-2.769687586E-2
2.786154220E0,5.326322280E-3,-3.195793368E-3,-2.929477207E-2
2.788155900E0,5.326322280E-3,-2.663161140E-3,-3.036003746E-2
2.790157033E0,4.261057824E-3,-4.261057824E-3,-2.876213938E-2
2.792157775E0,5.858954508E-3,-3.195793368E-3,-3.036003746E-2
2.794158712E0,6.391586736E-3,-3.728425596E-3,-3.142530099E-2
2.796158634E0,5.326322280E-3,-1.597896684E-3,-3.089267015E-2
2.798158712E0,5.326322280E-3,-2.130528912E-3,-2.876213938E-2
2.800158752E0,5.858954508E-3,-3.195793368E-3,-3.036003746E-2
2.802159416E0,5.858954508E-3,-2.663161140E-3,-2.822950855E-2
2.804159533E0,7.989482954E-3,-5.326322280E-4,-2.876213938E-2
2.806159767E0,4.793690052E-3,-2.130528912E-3,-2.876213938E-2
2.808160314E0,4.261057824E-3,-2.130528912E-3,-2.716424316E-2
2.810160744E0,6.924218964E-3,-1.597896684E-3,-2.876213938E-2
2.812161173E0,4.793690052E-3,-5.326322280E-3,-2.876213938E-2
2.814161564E0,4.793690052E-3,-2.130528912E-3,-2.822950855E-2
2.816162150E0,6.924218964E-3,-4.793690052E-3,-2.716424316E-2
2.818162462E0,5.858954508E-3,-4.793690052E-3,-2.609897964E-2
2.820162931E0,6.391586736E-3,-2.130528912E-3,-2.663161233E-2
2.822163712E0,3.195793368E-3,-4.793690052E-3,-2.716424316E-2
2.824164259E0,5.326322280E-3,-6.924218964E-3,-2.556634694E-2
2.826164337E0,3.728425596E-3,5.326322280E-4,-2.716424316E-2
2.828164064E0,4.261057824E-3,-3.728425596E-3,-2.503371425E-2
2.830164337E0,4.793690052E-3,-1.597896684E-3,-2.450108156E-2
2.832164142E0,4.793690052E-3,-3.728425596E-3,-2.290318534E-2
2.834164259E0,4.261057824E-3,-3.728425596E-3,-2.556634694E-2
2.836164377E0,5.858954508E-3,-2.130528912E-3,-2.237055451E-2
2.838165002E0,4.261057824E-3,-2.663161140E-3,-2.237055451E-2
2.840165705E0,3.728425596E-3,-4.261057824E-3,-2.396845073E-2
2.842166212E0,3.195793368E-3,-5.326322280E-3,-2.077265643E-2
2.844167306E0,2.663161140E-3,-4.261057824E-3,-2.024002373E-2
2.846168322E0,4.793690052E-3,-4.793690052E-3,-1.917476021E-2
2.848168556E0,3.728425596E-3,-3.728425596E-3,-2.024002373E-2
2.850169611E0,3.195793368E-3,-5.858954508E-3,-1.597896591E-2
2.852170627E0,2.130528912E-3,-7.456851192E-3,-1.651159860E-2
2.854171759E0,1.597896684E-3,-5.326322280E-3,-1.544633508E-2
2.856173556E0,2.130528912E-3,-4.793690052E-3,-1.438106969E-2
2.858175002E0,2.130528912E-3,-7.456851192E-3,-1.331580617E-2
2.860176017E0,3.195793368E-3,-7.989482954E-3,-1.331580617E-2
2.862177658E0,2.663161140E-3,-6.391586736E-3,-1.118527725E-2
2.864179025E0,2.130528912E-3,-7.456851192E-3,-9.587380104E-3
2.866180783E0,2.130528912E-3,-7.456851192E-3,-9.054748341E-3
2.868182423E0,1.597896684E-3,-9.054748341E-3,-9.054748341E-3
2.870183361E0,1.597896684E-3,-7.456851192E-3,-1.118527725E-2
2.872184650E0,1.065264456E-3,-9.054748341E-3,-8.522115648E-3
2.874185705E0,3.195793368E-3,-6.924218964E-3,-7.989482954E-3
2.876187462E0,2.130528912E-3,-7.989482954E-3,-8.522115648E-3
2.878188908E0,1.597896684E-3,-1.118527725E-2,-8.522115648E-3
2.880191017E0,1.597896684E-3,-9.587380104E-3,-8.522115648E-3
2.882193752E0,1.597896684E-3,-1.065264456E-2,-1.012001187E-2
2.884196212E0,5.326322280E-4,-1.118527725E-2,-9.054748341E-3
2.886198048E0,5.326322280E-4,-1.225054078E-2,-9.054748341E-3
2.888199845E0,2.130528912E-3,-1.278317347E-2,-9.054748341E-3
2.890201056E0,2.663161140E-3,-1.438106969E-2,-1.118527725E-2
2.892202541E0,1.065264456E-3,-1.597896591E-2,-1.171790902E-2
2.894204337E0,5.326322280E-4,-1.810949668E-2,-1.278317347E-2
2.896205627E0,1.065264456E-3,-1.917476021E-2,-1.331580617E-2
2.898206994E0,0.000000000E0,-2.024002373E-2,-1.331580617E-2
2.900208283E0,2.663161140E-3,-1.970739290E-2,-1.597896591E-2
2.902209064E0,1.065264456E-3,-2.343581803E-2,-1.704423130E-2
2.904210236E0,5.326322280E-4,-2.503371425E-2,-1.864212751E-2
2.906210353E0,1.597896684E-3,-2.716424316E-2,-1.917476021E-2
2.908210041E0,-1.597896684E-3,-2.663161233E-2,-2.024002373E-2
2.910210744E0,5.326322280E-4,-3.089267015E-2,-2.290318534E-2
2.912211994E0,-5.326322280E-4,-3.089267015E-2,-2.450108156E-2
2.914213087E0,2.130528912E-3,-3.515372798E-2,-2.663161233E-2
2.916213830E0,0.000000000E0,-3.089267015E-2,-2.876213938E-2
2.918214884E0,-2.130528912E-3,-3.675162420E-2,-2.929477207E-2
2.920215822E0,0.000000000E0,-3.781688958E-2,-3.195793182E-2
2.922217228E0,-1.065264456E-3,-3.515372798E-2,-3.462109342E-2
2.924218478E0,5.326322280E-4,-3.515372798E-2,-3.728425503E-2
2.926219884E0,-1.065264456E-3,-3.568635881E-2,-3.781688958E-2
2.928220783E0,5.326322280E-4,-3.302319720E-2,-3.994741663E-2
2.930221564E0,1.065264456E-3,-3.036003746E-2,-4.154531285E-2
2.932222775E0,-5.326322280E-4,-2.929477207E-2,-4.314320907E-2
2.934223712E0,2.130528912E-3,-2.609897964E-2,-4.687163606E-2
2.936224416E0,-5.326322280E-4,-2.503371425E-2,-4.953479767E-2
2.938225548E0,-5.326322280E-4,-2.290318534E-2,-5.113269389E-2
2.940226212E0,0.000000000E0,-2.130528912E-2,-5.166532472E-2
2.942226877E0,2.130528912E-3,-1.810949668E-2,-5.326322466E-2
2.944227814E0,1.597896684E-3,-1.864212751E-2,-5.326322466E-2
2.946228478E0,5.326322280E-4,-1.651159860E-2,-5.166532472E-2
2.948230002E0,2.130528912E-3,-2.077265643E-2,-5.219795927E-2
2.950230353E0,0.000000000E0,-2.343581803E-2,-5.273059011E-2
2.952230861E0,-5.326322280E-4,-2.290318534E-2,-5.326322466E-2
2.954232814E0,-5.326322280E-4,-2.716424316E-2,-5.113269389E-2
2.956234689E0,-1.065264456E-3,-2.663161233E-2,-5.113269389E-2
2.958235119E0,-1.597896684E-3,-3.195793182E-2,-5.060006306E-2
2.960235236E0,-4.261057824E-3,-3.036003746E-2,-4.953479767E-2
2.962235353E0,-4.793690052E-3,-3.675162420E-2,-4.846953228E-2
2.964235666E0,-1.065264456E-3,-3.781688958E-2,-4.900216311E-2
2.966235783E0,-2.663161140E-3,-3.941478580E-2,-4.793690145E-2
2.968235392E0,-4.793690052E-3,-4.367584363E-2,-4.633900523E-2
2.970236017E0,-4.793690052E-3,-4.474110901E-2,-4.420847446E-2
2.972236252E0,-5.858954508E-3,-4.154531285E-2,-4.420847446E-2
2.974236798E0,-6.391586736E-3,-4.261057824E-2,-4.261057824E-2
2.976238166E0,-6.924218964E-3,-3.994741663E-2,-4.048004746E-2
2.978239025E0,-9.054748341E-3,-3.568635881E-2,-3.941478580E-2
2.980240080E0,-7.456851192E-3,-3.036003746E-2,-3.621899337E-2
2.982240939E0,-8.522115648E-3,-2.290318534E-2,-3.355583176E-2
2.984241056E0,-7.989482954E-3,-1.597896591E-2,-3.355583176E-2
2.986241252E0,-7.456851192E-3,-5.326322280E-3,-3.036003746E-2
2.988241759E0,-7.989482954E-3,3.195793368E-3,-2.769687586E-2
2.990242345E0,-3.728425596E-3,1.384843793E-2,-2.769687586E-2
2.992242736E0,-6.924218964E-3,2.609897964E-2,-2.343581803E-2
2.994242814E0,-5.858954508E-3,3.408846259E-2,-2.343581803E-2
2.996243244E0,-7.989482954E-3,3.888215125E-2,-2.024002373E-2
2.998243556E0,-6.391586736E-3,4.420847446E-2,-1.970739290E-2
3.000243361E0,-7.989482954E-3,4.314320907E-2,-1.757686399E-2
3.002243869E0,-4.793690052E-3,4.261057824E-2,-1.438106969E-2
3.004244377E0,-9.587380104E-3,4.154531285E-2,-1.331580617E-2
3.006244572E0,-1.012001187E-2,3.994741663E-2,-1.118527725E-2
3.008245119E0,-9.587380104E-3,3.462109342E-2,-9.054748341E-3
3.010245587E0,-1.012001187E-2,2.982740477E-2,-8.522115648E-3
3.012245470E0,-1.118527725E-2,2.503371425E-2,-4.793690052E-3
3.014245509E0,-1.171790902E-2,1.810949668E-2,-3.728425596E-3
3.016245431E0,-1.171790902E-2,1.597896591E-2,0.000000000E0
3.018245939E0,-1.438106969E-2,1.065264456E-2,1.597896684E-3
3.020246525E0,-1.544633508E-2,7.456851192E-3,4.261057824E-3
3.022246720E0,-1.544633508E-2,4.261057824E-3,5.858954508E-3
3.024247697E0,-1.491370238E-2,4.793690052E-3,1.012001187E-2
3.026247619E0,-1.278317347E-2,3.728425596E-3,9.587380104E-3
3.028248009E0,-1.225054078E-2,6.391586736E-3,1.384843793E-2
3.030248166E0,-1.491370238E-2,9.587380104E-3,1.544633508E-2
3.032248556E0,-1.651159860E-2,1.225054078E-2,1.651159860E-2
3.034248439E0,-1.544633508E-2,1.491370238E-2,1.970739290E-2
3.036248908E0,-1.651159860E-2,2.077265643E-2,2.024002373E-2
3.038249298E0,-1.597896591E-2,2.343581803E-2,2.237055451E-2
3.040249220E0,-1.651159860E-2,2.769687586E-2,2.290318534E-2
3.042249416E0,-1.278317347E-2,3.089267015E-2,2.503371425E-2
3.044249533E0,-1.597896591E-2,3.302319720E-2,2.769687586E-2
3.046250548E0,-1.651159860E-2,3.621899337E-2,2.929477207E-2
3.048251056E0,-1.704423130E-2,3.621899337E-2,2.982740477E-2
3.050251330E0,-1.651159860E-2,3.994741663E-2,2.822950855E-2
3.052251056E0,-1.544633508E-2,3.834952042E-2,3.302319720E-2
3.054250587E0,-1.597896591E-2,3.675162420E-2,3.355583176E-2
3.056250587E0,-1.597896591E-2,3.781688958E-2,3.302319720E-2
3.058250900E0,-1.597896591E-2,3.302319720E-2,3.568635881E-2
3.060251369E0,-1.810949668E-2,2.822950855E-2,3.568635881E-2
3.062251759E0,-1.544633508E-2,3.195793182E-2,3.781688958E-2
3.064252502E0,-1.651159860E-2,2.769687586E-2,3.781688958E-2
3.066253283E0,-1.597896591E-2,2.769687586E-2,3.781688958E-2
3.068253830E0,-1.597896591E-2,2.609897964E-2,4.101268202E-2
3.070253439E0,-1.597896591E-2,2.343581803E-2,4.101268202E-2
3.072253009E0,-1.704423130E-2,2.290318534E-2,4.154531285E-2
3.074252502E0,-1.544633508E-2,2.290318534E-2,4.207794741E-2
3.076251681E0,-1.917476021E-2,2.237055451E-2,4.207794741E-2
3.078250627E0,-1.491370238E-2,2.343581803E-2,4.261057824E-2
3.080249103E0,-1.544633508E-2,2.503371425E-2,4.314320907E-2
3.082248752E0,-1.597896591E-2,2.663161233E-2,4.261057824E-2
3.084247697E0,-1.651159860E-2,2.982740477E-2,4.154531285E-2
3.086246798E0,-1.491370238E-2,3.142530099E-2,4.207794741E-2
3.088246369E0,-1.384843793E-2,3.249056637E-2,3.888215125E-2
3.090246173E0,-1.597896591E-2,3.568635881E-2,3.781688958E-2
3.092245353E0,-1.438106969E-2,3.408846259E-2,3.888215125E-2
3.094244962E0,-1.384843793E-2,3.568635881E-2,3.888215125E-2
3.096244064E0,-1.544633508E-2,3.408846259E-2,3.675162420E-2
3.098243752E0,-1.438106969E-2,3.249056637E-2,3.621899337E-2
3.100242814E0,-1.384843793E-2,3.462109342E-2,3.568635881E-2
3.102240587E0,-1.384843793E-2,3.195793182E-2,3.355583176E-2
3.104238400E0,-1.331580617E-2,3.408846259E-2,3.249056637E-2
3.106237111E0,-1.331580617E-2,3.142530099E-2,3.089267015E-2
3.108236994E0,-1.331580617E-2,3.195793182E-2,2.822950855E-2
3.110237658E0,-1.278317347E-2,3.089267015E-2,2.663161233E-2
3.112237814E0,-1.331580617E-2,2.876213938E-2,2.556634694E-2
3.114236877E0,-1.278317347E-2,2.876213938E-2,2.450108156E-2
3.116236877E0,-1.118527725E-2,2.876213938E-2,2.237055451E-2
3.118236681E0,-1.171790902E-2,2.929477207E-2,2.183792181E-2
3.120236134E0,-1.118527725E-2,3.089267015E-2,2.077265643E-2
3.122234845E0,-1.118527725E-2,2.876213938E-2,1.864212751E-2
3.124234142E0,-1.118527725E-2,2.876213938E-2,1.757686399E-2
3.126234572E0,-1.171790902E-2,3.249056637E-2,1.438106969E-2
3.128234259E0,-1.012001187E-2,3.089267015E-2,1.384843793E-2
3.130234025E0,-1.065264456E-2,3.142530099E-2,1.278317347E-2
3.132233166E0,-1.225054078E-2,3.142530099E-2,8.522115648E-3
3.134233009E0,-1.065264456E-2,3.355583176E-2,6.924218964E-3
3.136233127E0,-1.118527725E-2,3.302319720E-2,4.261057824E-3
3.138233634E0,-9.587380104E-3,3.728425503E-2,3.195793368E-3
3.140233830E0,-1.012001187E-2,3.408846259E-2,-5.326322280E-4
3.142234455E0,-1.012001187E-2,3.355583176E-2,-3.728425596E-3
3.144234572E0,-9.587380104E-3,3.355583176E-2,-4.793690052E-3
3.146234572E0,-1.012001187E-2,3.355583176E-2,-9.587380104E-3
3.148234494E0,-9.054748341E-3,3.195793182E-2,-1.118527725E-2
3.150234728E0,-8.522115648E-3,3.408846259E-2,-1.278317347E-2
3.152234962E0,-6.924218964E-3,3.036003746E-2,-1.704423130E-2
3.154235666E0,-8.522115648E-3,3.089267015E-2,-1.757686399E-2
3.156236720E0,-9.587380104E-3,2.876213938E-2,-2.183792181E-2
3.158237033E0,-8.522115648E-3,3.036003746E-2,-2.343581803E-2
3.160237150E0,-7.456851192E-3,2.663161233E-2,-2.450108156E-2
3.162238166E0,-8.522115648E-3,2.769687586E-2,-2.876213938E-2
3.164238673E0,-7.989482954E-3,2.450108156E-2,-2.982740477E-2
3.166239533E0,-7.456851192E-3,2.663161233E-2,-3.249056637E-2
3.168240627E0,-7.989482954E-3,2.609897964E-2,-3.355583176E-2
3.170241173E0,-7.989482954E-3,2.556634694E-2,-3.621899337E-2
3.172242658E0,-5.858954508E-3,2.609897964E-2,-3.781688958E-2
3.174243869E0,-6.391586736E-3,2.822950855E-2,-3.834952042E-2
3.176243947E0,-6.391586736E-3,2.609897964E-2,-3.994741663E-2
3.178244220E0,-5.858954508E-3,2.716424316E-2,-4.207794741E-2
3.180244728E0,-6.391586736E-3,2.876213938E-2,-4.420847446E-2
3.182245158E0,-6.391586736E-3,2.876213938E-2,-4.527373984E-2
3.184245470E0,-4.793690052E-3,3.089267015E-2,-4.793690145E-2
3.186245392E0,-4.261057824E-3,2.929477207E-2,-5.060006306E-2
3.188245744E0,-4.261057824E-3,2.716424316E-2,-5.273059011E-2
3.190245705E0,-3.195793368E-3,2.769687586E-2,-5.273059011E-2
3.192246173E0,-5.326322280E-3,2.343581803E-2,-5.486112088E-2
3.194246681E0,-2.663161140E-3,2.663161233E-2,-6.018744037E-2
3.196246642E0,-1.065264456E-3,2.556634694E-2,-5.858954415E-2
3.198246720E0,-2.663161140E-3,2.130528912E-2,-6.178534031E-2
3.200245939E0,-3.728425596E-3,2.237055451E-2,-6.285060197E-2
3.202245900E0,-4.261057824E-3,2.130528912E-2,-6.391586363E-2
3.204245080E0,-4.793690052E-3,1.970739290E-2,-6.391586363E-2
3.206245002E0,-2.663161140E-3,1.757686399E-2,-6.498113275E-2
3.208244494E0,-1.597896684E-3,1.704423130E-2,-6.444849819E-2
3.210243478E0,-2.663161140E-3,1.438106969E-2,-6.444849819E-2
3.212242814E0,-1.597896684E-3,1.491370238E-2,-6.444849819E-2
3.214243127E0,-3.195793368E-3,1.544633508E-2,-6.391586363E-2
3.216244377E0,-3.195793368E-3,1.438106969E-2,-6.444849819E-2
3.218245744E0,0.000000000E0,1.384843793E-2,-6.285060197E-2
3.220246056E0,-1.065264456E-3,1.384843793E-2,-6.178534031E-2
3.222246837E0,0.000000000E0,1.491370238E-2,-5.965480953E-2
3.224247189E0,1.065264456E-3,1.225054078E-2,-6.125270575E-2
3.226246759E0,-1.065264456E-3,1.118527725E-2,-5.965480953E-2
3.228247345E0,0.000000000E0,1.278317347E-2,-6.178534031E-2
3.230248048E0,2.130528912E-3,1.384843793E-2,-6.125270575E-2
3.232249259E0,1.065264456E-3,1.384843793E-2,-5.912217870E-2
3.234249572E0,1.597896684E-3,1.438106969E-2,-5.965480953E-2
3.236249962E0,1.597896684E-3,1.171790902E-2,-5.858954415E-2
3.238250509E0,5.326322280E-4,1.012001187E-2,-5.699164793E-2
3.240250900E0,2.130528912E-3,9.054748341E-3,-5.699164793E-2
3.242250939E0,2.663161140E-3,6.924218964E-3,-5.699164793E-2
3.244252150E0,1.597896684E-3,2.663161140E-3,-5.645901710E-2
3.246252658E0,1.065264456E-3,2.663161140E-3,-5.486112088E-2
3.248253244E0,2.663161140E-3,2.130528912E-3,-5.486112088E-2
3.250253673E0,3.728425596E-3,-2.130528912E-3,-5.432848632E-2
3.252253908E0,3.728425596E-3,-4.793690052E-3,-5.113269389E-2
3.254253791E0,3.195793368E-3,-5.858954508E-3,-4.900216311E-2
3.256254142E0,2.663161140E-3,-6.924218964E-3,-4.580637068E-2
3.258253322E0,4.261057824E-3,-1.118527725E-2,-4.527373984E-2
3.260253830E0,3.728425596E-3,-1.171790902E-2,-4.154531285E-2
3.262254689E0,4.261057824E-3,-1.225054078E-2,-3.888215125E-2
3.264256017E0,5.858954508E-3,-1.331580617E-2,-3.462109342E-2
3.266256056E0,4.261057824E-3,-1.438106969E-2,-3.355583176E-2
3.268255548E0,3.728425596E-3,-1.278317347E-2,-3.142530099E-2
3.270254416E0,7.989482954E-3,-1.491370238E-2,-2.663161233E-2
3.272253947E0,8.522115648E-3,-1.384843793E-2,-2.556634694E-2
3.274254064E0,9.054748341E-3,-1.384843793E-2,-2.183792181E-2
3.276253556E0,9.054748341E-3,-1.331580617E-2,-1.970739290E-2
3.278253478E0,9.054748341E-3,-1.384843793E-2,-1.704423130E-2
3.280252775E0,6.924218964E-3,-1.171790902E-2,-1.544633508E-2
3.282252853E0,1.012001187E-2,-1.438106969E-2,-1.384843793E-2
3.284252853E0,9.054748341E-3,-1.225054078E-2,-1.225054078E-2
3.286253205E0,7.989482954E-3,-1.171790902E-2,-1.171790902E-2
3.288253556E0,8.522115648E-3,-1.384843793E-2,-8.522115648E-3
3.290253517E0,8.522115648E-3,-1.384843793E-2,-4.793690052E-3
3.292253322E0,1.012001187E-2,-1.384843793E-2,-3.728425596E-3
3.294253087E0,9.587380104E-3,-1.491370238E-2,-1.597896684E-3
3.296253205E0,1.065264456E-2,-1.544633508E-2,1.065264456E-3
3.298253048E0,1.012001187E-2,-1.704423130E-2,4.261057824E-3
3.300252892E0,8.522115648E-3,-1.757686399E-2,6.924218964E-3
3.302253869E0,1.118527725E-2,-1.597896591E-2,1.012001187E-2
3.304254845E0,1.331580617E-2,-1.810949668E-2,1.118527725E-2
3.306255275E0,1.012001187E-2,-1.917476021E-2,1.757686399E-2
3.308255783E0,1.278317347E-2,-1.864212751E-2,1.864212751E-2
3.310255744E0,1.278317347E-2,-2.077265643E-2,2.450108156E-2
3.312255705E0,1.384843793E-2,-2.077265643E-2,2.556634694E-2
3.314255666E0,1.118527725E-2,-1.864212751E-2,2.716424316E-2
3.316255353E0,1.331580617E-2,-2.077265643E-2,3.249056637E-2
3.318256525E0,1.065264456E-2,-2.024002373E-2,3.462109342E-2
3.320257267E0,1.225054078E-2,-1.970739290E-2,3.728425503E-2
3.322258400E0,1.118527725E-2,-2.024002373E-2,4.207794741E-2
3.324259142E0,1.331580617E-2,-2.024002373E-2,4.314320907E-2
3.326258908E0,1.331580617E-2,-1.917476021E-2,4.580637068E-2
3.328257736E0,1.438106969E-2,-1.864212751E-2,4.633900523E-2
3.330256798E0,1.331580617E-2,-1.757686399E-2,4.846953228E-2
3.332256173E0,1.384843793E-2,-1.917476021E-2,5.166532472E-2
3.334255900E0,1.278317347E-2,-1.970739290E-2,5.113269389E-2
3.336255939E0,1.544633508E-2,-1.864212751E-2,5.432848632E-2
3.338255978E0,1.331580617E-2,-1.864212751E-2,5.432848632E-2
3.340255275E0,1.225054078E-2,-1.810949668E-2,5.486112088E-2
3.342254416E0,1.278317347E-2,-1.651159860E-2,5.592638254E-2
3.344253009E0,1.438106969E-2,-1.864212751E-2,5.858954415E-2
3.346252736E0,1.384843793E-2,-1.917476021E-2,6.018744037E-2
3.348252306E0,1.278317347E-2,-2.024002373E-2,6.072007492E-2
3.350251955E0,1.331580617E-2,-1.864212751E-2,6.551376730E-2
3.352251447E0,1.278317347E-2,-1.970739290E-2,6.604639441E-2
3.354250822E0,1.384843793E-2,-2.237055451E-2,6.498113275E-2
3.356250431E0,1.331580617E-2,-2.024002373E-2,6.817692518E-2
3.358250119E0,1.225054078E-2,-2.024002373E-2,7.137271762E-2
3.360250197E0,1.171790902E-2,-1.917476021E-2,7.190535218E-2
3.362249689E0,1.544633508E-2,-1.970739290E-2,7.403588295E-2
3.364249259E0,1.331580617E-2,-2.237055451E-2,7.616640627E-2
3.366248673E0,1.278317347E-2,-2.024002373E-2,7.669904083E-2
3.368248166E0,1.225054078E-2,-1.864212751E-2,7.776430249E-2
3.370247814E0,1.438106969E-2,-2.024002373E-2,7.882957160E-2
3.372246720E0,1.278317347E-2,-1.810949668E-2,7.669904083E-2
3.374245666E0,1.491370238E-2,-1.970739290E-2,7.723167539E-2
3.376245119E0,1.384843793E-2,-1.810949668E-2,7.723167539E-2
3.378244259E0,1.704423130E-2,-2.024002373E-2,7.723167539E-2
3.380244337E0,1.278317347E-2,-1.917476021E-2,7.456851006E-2
3.382244455E0,1.331580617E-2,-1.810949668E-2,7.456851006E-2
3.384243986E0,1.278317347E-2,-2.130528912E-2,7.456851006E-2
3.386242931E0,1.331580617E-2,-1.917476021E-2,7.243798673E-2
3.388242306E0,1.278317347E-2,-2.077265643E-2,7.243798673E-2
3.390241837E0,1.331580617E-2,-2.183792181E-2,6.924218684E-2
3.392241603E0,1.491370238E-2,-2.024002373E-2,6.711166352E-2
3.394241447E0,1.225054078E-2,-2.290318534E-2,6.924218684E-2
3.396241486E0,1.438106969E-2,-2.237055451E-2,6.764429063E-2
3.398240861E0,1.225054078E-2,-2.290318534E-2,6.604639441E-2
3.400240158E0,1.331580617E-2,-2.130528912E-2,6.657902896E-2
3.402239767E0,1.225054078E-2,-2.556634694E-2,6.498113275E-2
3.404237775E0,1.278317347E-2,-2.503371425E-2,6.391586363E-2
3.406236603E0,1.278317347E-2,-2.290318534E-2,6.391586363E-2
3.408236369E0,1.118527725E-2,-2.290318534E-2,6.125270575E-2
3.410236642E0,1.278317347E-2,-2.450108156E-2,6.178534031E-2
3.412237462E0,1.225054078E-2,-2.503371425E-2,6.125270575E-2
3.414238673E0,1.012001187E-2,-2.130528912E-2,6.072007492E-2
3.416238439E0,1.331580617E-2,-2.290318534E-2,5.752427876E-2
3.418238478E0,1.171790902E-2,-2.343581803E-2,5.486112088E-2
3.420238166E0,1.118527725E-2,-2.396845073E-2,5.379585549E-2
3.422238556E0,1.384843793E-2,-2.343581803E-2,5.113269389E-2
3.424239220E0,1.065264456E-2,-2.290318534E-2,4.846953228E-2
3.426240119E0,1.331580617E-2,-2.396845073E-2,4.580637068E-2
3.428240783E0,1.065264456E-2,-2.663161233E-2,4.314320907E-2
3.430241056E0,1.331580617E-2,-2.450108156E-2,3.941478580E-2
3.432240666E0,1.225054078E-2,-2.556634694E-2,3.621899337E-2
3.434240002E0,1.225054078E-2,-2.556634694E-2,3.249056637E-2
3.436239923E0,1.331580617E-2,-2.609897964E-2,2.982740477E-2
3.438240666E0,1.171790902E-2,-2.769687586E-2,2.663161233E-2
3.440241408E0,1.331580617E-2,-2.822950855E-2,2.343581803E-2
3.442241486E0,1.171790902E-2,-2.769687586E-2,2.183792181E-2
3.444241212E0,1.171790902E-2,-2.769687586E-2,1.864212751E-2
3.446240666E0,1.278317347E-2,-2.769687586E-2,1.651159860E-2
3.448240041E0,1.012001187E-2,-2.876213938E-2,1.544633508E-2
3.450239962E0,1.065264456E-2,-2.663161233E-2,1.118527725E-2
3.452239533E0,1.065264456E-2,-2.929477207E-2,9.587380104E-3
3.454240158E0,1.118527725E-2,-2.876213938E-2,6.924218964E-3
3.456241916E0,1.118527725E-2,-2.663161233E-2,6.924218964E-3
3.458242423E0,1.171790902E-2,-2.556634694E-2,5.326322280E-3
3.460242541E0,1.278317347E-2,-2.769687586E-2,1.597896684E-3
3.462243400E0,1.331580617E-2,-2.769687586E-2,5.326322280E-4
3.464242931E0,1.171790902E-2,-2.769687586E-2,-3.728425596E-3
3.466242970E0,1.225054078E-2,-2.663161233E-2,-5.858954508E-3
3.468243322E0,1.278317347E-2,-2.716424316E-2,-7.989482954E-3
3.470244142E0,1.331580617E-2,-2.716424316E-2,-1.118527725E-2
3.472244064E0,1.331580617E-2,-2.609897964E-2,-1.597896591E-2
3.474243947E0,1.278317347E-2,-2.609897964E-2,-1.704423130E-2
3.476244064E0,1.225054078E-2,-2.716424316E-2,-1.970739290E-2
3.478244884E0,1.278317347E-2,-2.609897964E-2,-2.556634694E-2
3.480244689E0,1.331580617E-2,-2.556634694E-2,-2.663161233E-2
3.482244455E0,1.171790902E-2,-2.769687586E-2,-2.929477207E-2
3.484243869E0,1.171790902E-2,-2.929477207E-2,-3.302319720E-2
3.486243361E0,1.384843793E-2,-2.876213938E-2,-3.568635881E-2
3.488243283E0,1.225054078E-2,-2.663161233E-2,-3.621899337E-2
3.490244220E0,1.278317347E-2,-2.769687586E-2,-3.781688958E-2
3.492243712E0,1.438106969E-2,-2.822950855E-2,-4.207794741E-2
3.494243087E0,1.225054078E-2,-2.716424316E-2,-4.261057824E-2
3.496244337E0,1.438106969E-2,-2.609897964E-2,-4.367584363E-2
3.498244845E0,1.278317347E-2,-2.663161233E-2,-4.474110901E-2
3.500244533E0,1.438106969E-2,-2.450108156E-2,-4.527373984E-2
3.502244259E0,1.331580617E-2,-2.396845073E-2,-4.633900523E-2
3.504243908E0,1.118527725E-2,-2.450108156E-2,-4.580637068E-2
3.506243673E0,1.331580617E-2,-2.130528912E-2,-4.740426689E-2
3.508243830E0,1.225054078E-2,-1.917476021E-2,-4.900216311E-2
3.510244259E0,1.438106969E-2,-1.810949668E-2,-4.953479767E-2
3.512245197E0,1.331580617E-2,-1.970739290E-2,-5.113269389E-2
3.514246525E0,1.331580617E-2,-1.757686399E-2,-4.953479767E-2
3.516247462E0,1.225054078E-2,-1.438106969E-2,-5.166532472E-2
3.518247736E0,1.491370238E-2,-1.491370238E-2,-5.219795927E-2
3.520247970E0,1.331580617E-2,-1.438106969E-2,-5.379585549E-2
3.522248244E0,1.278317347E-2,-1.278317347E-2,-5.486112088E-2
3.524248009E0,1.065264456E-2,-1.171790902E-2,-5.592638254E-2
3.526248244E0,1.171790902E-2,-9.587380104E-3,-5.432848632E-2
3.528248478E0,1.065264456E-2,-9.054748341E-3,-5.539375171E-2
3.530248517E0,1.118527725E-2,-1.065264456E-2,-5.645901710E-2
3.532248244E0,1.171790902E-2,-6.924218964E-3,-5.699164793E-2
3.534248009E0,1.012001187E-2,-6.924218964E-3,-5.432848632E-2
3.536246877E0,1.118527725E-2,-6.924218964E-3,-5.379585549E-2
3.538246525E0,1.012001187E-2,-5.326322280E-3,-5.379585549E-2
3.540246369E0,1.225054078E-2,-4.793690052E-3,-5.166532472E-2
3.542246681E0,1.225054078E-2,-1.065264456E-3,-5.060006306E-2
3.544246759E0,9.054748341E-3,-1.065264456E-3,-4.953479767E-2
3.546247775E0,7.456851192E-3,5.326322280E-4,-4.740426689E-2
3.548247736E0,1.012001187E-2,2.663161140E-3,-4.527373984E-2
3.550247619E0,7.989482954E-3,5.326322280E-3,-4.580637068E-2
3.552246837E0,1.012001187E-2,6.391586736E-3,-4.207794741E-2
3.554246720E0,7.989482954E-3,7.989482954E-3,-4.048004746E-2
3.556246955E0,6.924218964E-3,7.989482954E-3,-3.834952042E-2
3.558246994E0,6.391586736E-3,1.331580617E-2,-3.781688958E-2
3.560247033E0,8.522115648E-3,1.171790902E-2,-3.408846259E-2
3.562248087E0,5.858954508E-3,1.331580617E-2,-3.408846259E-2
3.564248556E0,5.858954508E-3,1.438106969E-2,-2.982740477E-2
3.566248673E0,7.456851192E-3,1.331580617E-2,-2.876213938E-2
3.568248673E0,6.391586736E-3,1.544633508E-2,-2.769687586E-2
3.570249728E0,6.391586736E-3,1.597896591E-2,-2.556634694E-2
3.572250080E0,5.326322280E-3,1.651159860E-2,-2.396845073E-2
3.574251681E0,3.195793368E-3,1.384843793E-2,-2.130528912E-2
3.576252033E0,3.728425596E-3,1.118527725E-2,-1.810949668E-2
3.578252150E0,3.195793368E-3,1.171790902E-2,-1.544633508E-2
3.580252033E0,4.261057824E-3,9.587380104E-3,-1.331580617E-2
3.582252033E0,3.195793368E-3,1.012001187E-2,-8.522115648E-3
3.584253205E0,1.597896684E-3,8.522115648E-3,-5.858954508E-3
3.586253830E0,1.065264456E-3,6.924218964E-3,-2.663161140E-3
3.588254962E0,1.597896684E-3,6.391586736E-3,1.065264456E-3
3.590255392E0,0.000000000E0,5.858954508E-3,5.858954508E-3
3.592255978E0,5.326322280E-4,7.989482954E-3,9.587380104E-3
3.594256877E0,-5.326322280E-4,9.054748341E-3,1.384843793E-2
3.596257228E0,5.326322280E-4,1.225054078E-2,1.704423130E-2
3.598258166E0,-2.130528912E-3,1.278317347E-2,2.024002373E-2
3.600258791E0,-5.326322280E-4,1.810949668E-2,2.450108156E-2
3.602260275E0,-2.663161140E-3,1.970739290E-2,2.609897964E-2
3.604262072E0,-3.728425596E-3,2.077265643E-2,3.142530099E-2
3.606262892E0,-3.195793368E-3,2.077265643E-2,3.249056637E-2
3.608263400E0,-3.195793368E-3,2.556634694E-2,3.728425503E-2
3.610264337E0,-3.195793368E-3,2.237055451E-2,3.888215125E-2
3.612264806E0,-4.793690052E-3,2.503371425E-2,4.314320907E-2
3.614265822E0,-2.130528912E-3,2.237055451E-2,4.420847446E-2
3.616266369E0,-4.793690052E-3,1.917476021E-2,4.633900523E-2
3.618266447E0,-5.326322280E-3,2.130528912E-2,5.060006306E-2
3.620266330E0,-7.989482954E-3,2.396845073E-2,5.326322466E-2
3.622266955E0,-5.858954508E-3,2.822950855E-2,5.273059011E-2
3.624267306E0,-7.989482954E-3,3.462109342E-2,5.539375171E-2
3.626267384E0,-6.924218964E-3,3.834952042E-2,6.018744037E-2
3.628268048E0,-5.326322280E-3,4.261057824E-2,6.178534031E-2
3.630268322E0,-4.793690052E-3,5.006742850E-2,6.231797114E-2
3.632269064E0,-6.924218964E-3,5.699164793E-2,6.711166352E-2
3.634270353E0,-4.793690052E-3,6.018744037E-2,7.137271762E-2
3.636269884E0,-6.924218964E-3,6.551376730E-2,7.190535218E-2
3.638270041E0,-4.793690052E-3,7.084008306E-2,7.403588295E-2
3.640271095E0,-6.391586736E-3,7.297061384E-2,7.776430249E-2
3.642271877E0,-5.858954508E-3,7.297061384E-2,7.936219871E-2
3.644274181E0,-6.391586736E-3,7.510114461E-2,8.202536404E-2
3.646275627E0,-6.391586736E-3,7.297061384E-2,8.415589482E-2
3.648276486E0,-5.326322280E-3,7.084008306E-2,8.522115648E-2
3.650278166E0,-5.326322280E-3,6.764429063E-2,8.628641814E-2
3.652279103E0,-6.391586736E-3,6.657902896E-2,8.788431436E-2
3.654280041E0,-7.989482954E-3,6.391586363E-2,8.575379103E-2
3.656281212E0,-7.989482954E-3,5.592638254E-2,8.735168725E-2
3.658282384E0,-1.012001187E-2,5.699164793E-2,8.681905270E-2
3.660283009E0,-6.924218964E-3,5.166532472E-2,8.628641814E-2
3.662284103E0,-9.587380104E-3,4.740426689E-2,8.681905270E-2
3.664284337E0,-9.587380104E-3,4.740426689E-2,8.575379103E-2
3.666284611E0,-7.989482954E-3,4.474110901E-2,8.468852192E-2
3.668285353E0,-9.054748341E-3,4.101268202E-2,8.202536404E-2
3.670285900E0,-7.989482954E-3,4.261057824E-2,8.255799860E-2
3.672284884E0,-1.065264456E-2,4.420847446E-2,8.042746782E-2
3.674282931E0,-7.989482954E-3,4.687163606E-2,8.042746782E-2
3.676281720E0,-7.989482954E-3,5.379585549E-2,7.936219871E-2
3.678281486E0,-9.587380104E-3,5.805691332E-2,7.669904083E-2
3.680282502E0,-8.522115648E-3,6.338323653E-2,7.723167539E-2
3.682283009E0,-7.456851192E-3,7.297061384E-2,7.563377917E-2
3.684282775E0,-5.858954508E-3,8.149272949E-2,7.510114461E-2
3.686282970E0,-7.456851192E-3,8.894958347E-2,7.510114461E-2
3.688283009E0,-4.261057824E-3,9.427590668E-2,7.190535218E-2
3.690282970E0,-3.728425596E-3,1.022653878E-1,7.084008306E-2
3.692283673E0,-7.456851192E-3,1.065264493E-1,6.924218684E-2
3.694283947E0,-4.793690052E-3,1.081243455E-1,6.551376730E-2
3.696283673E0,-2.663161140E-3,1.075917110E-1,6.498113275E-2
3.698283712E0,-1.597896684E-3,1.054611802E-1,6.125270575E-2
3.700283283E0,-2.130528912E-3,1.001348570E-1,5.805691332E-2
3.702282658E0,-5.326322280E-3,9.054747969E-2,5.645901710E-2
3.704282228E0,-4.793690052E-3,8.575379103E-2,5.166532472E-2
3.706281877E0,-3.195793368E-3,7.403588295E-2,4.740426689E-2
3.708281330E0,-3.195793368E-3,6.285060197E-2,4.420847446E-2
3.710281486E0,-4.793690052E-3,4.900216311E-2,3.994741663E-2
3.712281798E0,-4.261057824E-3,3.834952042E-2,3.568635881E-2
3.714281212E0,-4.261057824E-3,2.609897964E-2,3.142530099E-2
3.716281291E0,-4.793690052E-3,1.118527725E-2,2.716424316E-2
3.718282736E0,-6.391586736E-3,2.130528912E-3,2.130528912E-2
3.720282580E0,-6.924218964E-3,-7.989482954E-3,1.810949668E-2
3.722283283E0,-5.858954508E-3,-1.864212751E-2,1.118527725E-2
3.724283009E0,-7.456851192E-3,-2.396845073E-2,6.391586736E-3
3.726282228E0,-6.924218964E-3,-2.929477207E-2,5.326322280E-4
3.728281291E0,-4.793690052E-3,-3.462109342E-2,-2.130528912E-3
3.730280470E0,-5.858954508E-3,-3.355583176E-2,-5.858954508E-3
3.732279572E0,-6.924218964E-3,-3.515372798E-2,-9.587380104E-3
3.734279611E0,-6.391586736E-3,-3.089267015E-2,-1.331580617E-2
3.736279962E0,-6.924218964E-3,-3.195793182E-2,-1.651159860E-2
3.738280158E0,-6.391586736E-3,-2.609897964E-2,-2.130528912E-2
3.740281134E0,-5.858954508E-3,-2.183792181E-2,-2.290318534E-2
3.742281486E0,-2.663161140E-3,-1.651159860E-2,-2.663161233E-2
3.744282384E0,-1.065264456E-3,-1.331580617E-2,-3.142530099E-2
3.746282619E0,-1.065264456E-3,-6.924218964E-3,-3.568635881E-2
3.748282619E0,-3.195793368E-3,-5.326322280E-3,-3.941478580E-2
3.750283361E0,-1.597896684E-3,-1.065264456E-3,-4.261057824E-2
3.752283712E0,-1.065264456E-3,3.195793368E-3,-4.846953228E-2
3.754284142E0,-1.065264456E-3,5.326322280E-3,-5.326322466E-2
3.756284025E0,-2.130528912E-3,6.924218964E-3,-5.752427876E-2
3.758284416E0,1.065264456E-3,5.858954508E-3,-6.178534031E-2
3.760283986E0,0.000000000E0,9.054748341E-3,-6.391586363E-2
3.762285548E0,-5.326322280E-4,7.456851192E-3,-6.924218684E-2
3.764285978E0,-5.326322280E-4,6.924218964E-3,-7.403588295E-2
3.766286603E0,-5.326322280E-4,5.858954508E-3,-7.723167539E-2
3.768287189E0,-2.130528912E-3,5.326322280E-3,-7.882957160E-2
3.770286955E0,0.000000000E0,7.456851192E-3,-8.202536404E-2
3.772286994E0,-1.597896684E-3,7.456851192E-3,-8.415589482E-2
3.774287072E0,-2.130528912E-3,1.012001187E-2,-8.628641814E-2
3.776287345E0,0.000000000E0,1.065264456E-2,-8.841694891E-2
3.778287541E0,-1.065264456E-3,1.544633508E-2,-9.001484513E-2
3.780287345E0,-1.065264456E-3,1.491370238E-2,-9.161274135E-2
3.782287619E0,1.597896684E-3,1.917476021E-2,-9.267801046E-2
3.784286525E0,1.597896684E-3,2.450108156E-2,-9.267801046E-2
3.786286369E0,0.000000000E0,2.503371425E-2,-9.321063757E-2
3.788285978E0,1.065264456E-3,3.036003746E-2,-9.427590668E-2
3.790285587E0,2.130528912E-3,3.036003746E-2,-9.321063757E-2
3.792285353E0,-1.597896684E-3,3.302319720E-2,-9.427590668E-2
3.794284377E0,1.597896684E-3,3.515372798E-2,-9.640643001E-2
3.796283478E0,5.326322280E-4,3.355583176E-2,-9.693906456E-2
3.798281798E0,2.663161140E-3,3.302319720E-2,-9.906959534E-2
3.800279806E0,0.000000000E0,2.929477207E-2,-9.800432622E-2
3.802278361E0,2.663161140E-3,2.450108156E-2,-9.800432622E-2
3.804276564E0,1.065264456E-3,1.917476021E-2,-9.853696078E-2
3.806275158E0,2.663161140E-3,1.438106969E-2,-9.960222989E-2
3.808274416E0,-5.326322280E-4,9.054748341E-3,-1.006674916E-1
3.810272541E0,1.065264456E-3,2.130528912E-3,-9.906959534E-2
3.812271017E0,2.663161140E-3,-3.728425596E-3,-9.853696078E-2
3.814269884E0,-1.065264456E-3,-1.171790902E-2,-9.747169912E-2
3.816269259E0,1.065264456E-3,-1.704423130E-2,-9.640643001E-2
3.818268048E0,5.326322280E-4,-2.290318534E-2,-9.374327213E-2
3.820267970E0,-1.597896684E-3,-2.663161233E-2,-9.108011425E-2
3.822267502E0,-3.195793368E-3,-3.036003746E-2,-8.948221803E-2
3.824265744E0,-1.597896684E-3,-3.462109342E-2,-8.575379103E-2
3.826263908E0,0.000000000E0,-3.834952042E-2,-8.415589482E-2
3.828262814E0,-3.195793368E-3,-4.048004746E-2,-7.882957160E-2
3.830261603E0,-1.597896684E-3,-4.314320907E-2,-7.510114461E-2
3.832260666E0,-3.195793368E-3,-4.633900523E-2,-7.403588295E-2
3.834260236E0,-2.663161140E-3,-4.900216311E-2,-6.817692518E-2
3.836259923E0,-1.065264456E-3,-5.326322466E-2,-6.604639441E-2
3.838259728E0,-1.597896684E-3,-5.432848632E-2,-6.178534031E-2
3.840260705E0,-3.195793368E-3,-5.858954415E-2,-5.965480953E-2
3.842261017E0,-1.597896684E-3,-5.858954415E-2,-5.592638254E-2
3.844261837E0,-3.195793368E-3,-6.285060197E-2,-5.219795927E-2
3.846261095E0,-1.597896684E-3,-6.391586363E-2,-4.953479767E-2
3.848260978E0,-2.663161140E-3,-6.817692518E-2,-4.527373984E-2
3.850260822E0,-4.793690052E-3,-5.912217870E-2,-4.154531285E-2
3.852261173E0,-6.391586736E-3,-4.846953228E-2,-3.834952042E-2
3.854262228E0,-9.054748341E-3,-2.716424316E-2,-3.142530099E-2
3.856261916E0,-4.261057824E-3,-8.522115648E-3,-2.876213938E-2
3.858261564E0,-1.597896684E-3,4.793690052E-3,-2.716424316E-2
3.860260900E0,2.663161140E-3,2.183792181E-2,-2.503371425E-2
3.862261603E0,6.924218964E-3,2.876213938E-2,-1.917476021E-2
3.864261916E0,4.261057824E-3,3.675162420E-2,-1.544633508E-2
3.866262150E0,5.326322280E-3,3.941478580E-2,-1.171790902E-2
3.868261173E0,1.065264456E-3,3.728425503E-2,-6.391586736E-3
3.870259884E0,-5.326322280E-4,2.769687586E-2,1.597896684E-3
3.872258361E0,0.000000000E0,1.810949668E-2,6.924218964E-3
3.874257580E0,1.597896684E-3,4.793690052E-3,1.012001187E-2
3.876257033E0,5.326322280E-4,-7.456851192E-3,1.384843793E-2
3.878257111E0,0.000000000E0,-2.290318534E-2,2.024002373E-2
3.880257384E0,2.663161140E-3,-3.675162420E-2,2.556634694E-2
3.882256994E0,-2.130528912E-3,-5.219795927E-2,3.089267015E-2
3.884256994E0,-4.261057824E-3,-6.498113275E-2,3.408846259E-2
3.886256291E0,-4.793690052E-3,-7.829693705E-2,3.941478580E-2
3.888254728E0,-4.793690052E-3,-8.841694891E-2,4.367584363E-2
3.890253439E0,-4.793690052E-3,-9.374327213E-2,4.633900523E-2
3.892252150E0,-5.858954508E-3,-9.800432622E-2,5.060006306E-2
3.894251330E0,-4.793690052E-3,-9.587380290E-2,5.273059011E-2
3.896250158E0,-7.456851192E-3,-8.735168725E-2,5.912217870E-2
3.898249728E0,-1.012001187E-2,-6.444849819E-2,6.072007492E-2
3.900249416E0,-4.793690052E-3,-4.580637068E-2,6.178534031E-2
3.902249416E0,-2.663161140E-3,-2.663161233E-2,6.285060197E-2
3.904249142E0,2.663161140E-3,-8.522115648E-3,6.498113275E-2
3.906249220E0,6.391586736E-3,7.456851192E-3,6.551376730E-2
3.908248869E0,4.261057824E-3,2.237055451E-2,6.870955974E-2
3.910247853E0,4.261057824E-3,3.302319720E-2,7.030745596E-2
3.912247580E0,3.195793368E-3,4.314320907E-2,7.190535218E-2
3.914247033E0,2.130528912E-3,4.846953228E-2,7.510114461E-2
3.916246447E0,4.261057824E-3,5.006742850E-2,7.616640627E-2
3.918246447E0,3.195793368E-3,4.900216311E-2,7.829693705E-2
3.920245744E0,4.793690052E-3,4.154531285E-2,7.989483327E-2
3.922245666E0,6.391586736E-3,3.515372798E-2,8.255799860E-2
3.924245314E0,5.858954508E-3,2.183792181E-2,8.522115648E-2
3.926245666E0,3.195793368E-3,1.118527725E-2,8.468852192E-2
3.928245822E0,2.130528912E-3,-3.195793368E-3,8.681905270E-2
3.930245509E0,-5.326322280E-4,-1.704423130E-2,8.522115648E-2
3.932244806E0,5.326322280E-4,-3.142530099E-2,8.628641814E-2
3.934244806E0,-1.065264456E-3,-4.687163606E-2,8.628641814E-2
3.936244962E0,0.000000000E0,-5.805691332E-2,8.681905270E-2
3.938244689E0,5.326322280E-4,-6.870955974E-2,8.575379103E-2
3.940244689E0,-1.597896684E-3,-8.042746782E-2,8.468852192E-2
3.942244650E0,-2.130528912E-3,-8.309062570E-2,8.202536404E-2
3.944245197E0,-4.261057824E-3,-9.214537591E-2,8.202536404E-2
3.946244455E0,-3.728425596E-3,-9.374327213E-2,7.882957160E-2
3.948244064E0,-2.130528912E-3,-9.321063757E-2,7.669904083E-2
3.950243400E0,-3.728425596E-3,-9.267801046E-2,7.297061384E-2
3.952243127E0,-3.728425596E-3,-8.628641814E-2,7.084008306E-2
3.954242814E0,-2.663161140E-3,-7.936219871E-2,6.657902896E-2
3.956243166E0,-1.597896684E-3,-7.030745596E-2,6.604639441E-2
3.958243009E0,1.065264456E-3,-6.231797114E-2,6.285060197E-2
3.960243478E0,-1.065264456E-3,-5.006742850E-2,5.912217870E-2
3.962244103E0,5.326322280E-4,-3.941478580E-2,5.752427876E-2
3.964244337E0,2.663161140E-3,-3.036003746E-2,5.326322466E-2
3.966245158E0,2.130528912E-3,-2.237055451E-2,5.060006306E-2
3.968246095E0,2.130528912E-3,-1.225054078E-2,4.846953228E-2
3.970245666E0,4.793690052E-3,-6.924218964E-3,4.580637068E-2
3.972245197E0,4.261057824E-3,-1.597896684E-3,4.101268202E-2
3.974245002E0,4.793690052E-3,3.195793368E-3,3.888215125E-2
3.976244337E0,4.261057824E-3,5.858954508E-3,3.621899337E-2
3.978244728E0,5.326322280E-3,7.456851192E-3,3.249056637E-2
3.980244572E0,5.858954508E-3,1.118527725E-2,2.982740477E-2
3.982244181E0,4.261057824E-3,7.989482954E-3,2.609897964E-2
