"Time (s)","Gyroscope x (rad/s)","Gyroscope y (rad/s)","Gyroscope z (rad/s)"
1.266039420E-1,-1.374999993E-4,-5.499999970E-4,-2.612499986E-3
1.291043290E-1,-1.099999994E-3,5.499999970E-4,-1.649999991E-3
1.316048650E-1,-1.374999993E-4,5.499999970E-4,-1.649999991E-3
1.341051750E-1,9.624999948E-4,5.499999970E-4,-2.612499986E-3
1.366055390E-1,9.624999948E-4,5.499999970E-4,-1.649999991E-3
1.391060770E-1,-1.099999994E-3,1.649999991E-3,5.499999970E-4
1.416064640E-1,-1.374999993E-4,-1.649999991E-3,-5.499999970E-4
1.441070000E-1,-1.374999993E-4,-5.499999970E-4,-5.499999970E-4
1.466073630E-1,9.624999948E-4,1.649999991E-3,-5.499999970E-4
1.491078990E-1,2.062499989E-3,-5.499999970E-4,-1.649999991E-3
1.516082860E-1,-1.374999993E-4,-5.499999970E-4,5.499999970E-4
1.541088220E-1,9.624999948E-4,-5.499999970E-4,5.499999970E-4
1.566092190E-1,-1.374999993E-4,-5.499999970E-4,5.499999970E-4
1.591097550E-1,-1.099999994E-3,5.499999970E-4,-1.649999991E-3
1.616101420E-1,9.624999948E-4,-5.499999970E-4,-2.612499986E-3
1.641106790E-1,-1.374999993E-4,5.499999970E-4,-2.612499986E-3
1.666110650E-1,-1.374999993E-4,-5.499999970E-4,-2.612499986E-3
1.691116020E-1,-1.374999993E-4,5.499999970E-4,-5.774999969E-3
1.716119880E-1,-1.374999993E-4,-5.499999970E-4,-2.612499986E-3
1.741125250E-1,-1.374999993E-4,1.649999991E-3,-3.712499980E-3
1.766129110E-1,-1.374999993E-4,5.499999970E-4,-3.712499980E-3
1.791134190E-1,9.624999948E-4,5.499999970E-4,-2.612499986E-3
1.816138050E-1,9.624999948E-4,1.649999991E-3,-3.712499980E-3
1.841143420E-1,-1.374999993E-4,-1.649999991E-3,-1.649999991E-3
1.866146520E-1,9.624999948E-4,5.499999970E-4,-2.612499986E-3
1.891150290E-1,2.062499989E-3,5.499999970E-4,-1.649999991E-3
1.916155680E-1,9.624999948E-4,5.499999970E-4,-2.612499986E-3
1.941159540E-1,-1.374999993E-4,-5.499999970E-4,-5.499999970E-4
1.966164910E-1,-1.374999993E-4,-5.499999970E-4,5.499999970E-4
1.991168720E-1,9.624999948E-4,-5.499999970E-4,-1.649999991E-3
2.016174090E-1,-1.374999993E-4,-5.499999970E-4,5.499999970E-4
2.041177960E-1,-1.374999993E-4,1.649999991E-3,5.499999970E-4
2.066183320E-1,-1.374999993E-4,-1.649999991E-3,-5.499999970E-4
2.091187050E-1,9.624999948E-4,5.499999970E-4,-5.499999970E-4
2.116192410E-1,-1.374999993E-4,5.499999970E-4,5.499999970E-4
2.141195510E-1,-1.099999994E-3,1.649999991E-3,5.499999970E-4
2.166199330E-1,-1.374999993E-4,5.499999970E-4,-5.499999970E-4
2.191204430E-1,-1.099999994E-3,5.499999970E-4,-5.499999970E-4
2.216208290E-1,9.624999948E-4,-5.499999970E-4,-5.499999970E-4
2.241213660E-1,-1.374999993E-4,5.499999970E-4,-1.649999991E-3
2.266217530E-1,-1.374999993E-4,5.499999970E-4,-5.499999970E-4
2.291222890E-1,-1.374999993E-4,5.499999970E-4,5.499999970E-4
2.316226760E-1,-1.374999993E-4,5.499999970E-4,5.499999970E-4
2.341232120E-1,-1.099999994E-3,-5.499999970E-4,5.499999970E-4
2.366235990E-1,9.624999948E-4,5.499999970E-4,-1.649999991E-3
2.391241350E-1,-1.374999993E-4,-5.499999970E-4,5.499999970E-4
2.416245170E-1,9.624999948E-4,-5.499999970E-4,-1.649999991E-3
2.441250530E-1,-1.374999993E-4,5.499999970E-4,5.499999970E-4
2.466254400E-1,-1.374999993E-4,-1.649999991E-3,-5.499999970E-4
2.491259760E-1,9.624999948E-4,-5.499999970E-4,-2.612499986E-3
2.516263630E-1,-1.374999993E-4,5.499999970E-4,-1.649999991E-3
2.541268990E-1,-1.099999994E-3,5.499999970E-4,-2.612499986E-3
2.566272860E-1,-1.374999993E-4,-1.649999991E-3,-5.774999969E-3
2.591278230E-1,9.624999948E-4,5.499999970E-4,-2.612499986E-3
2.616281320E-1,-1.374999993E-4,5.499999970E-4,-6.874999963E-3
2.641284990E-1,9.624999948E-4,-5.499999970E-4,-6.874999963E-3
2.666290370E-1,-1.374999993E-4,5.499999970E-4,-6.874999963E-3
2.691294240E-1,-1.099999994E-3,5.499999970E-4,-4.812499974E-3
2.716299600E-1,9.624999948E-4,-1.649999991E-3,-7.974999957E-3
2.741303430E-1,-1.374999993E-4,1.649999991E-3,-6.874999963E-3
2.766308800E-1,9.624999948E-4,5.499999970E-4,-9.074999951E-3
2.791312660E-1,-1.374999993E-4,-5.499999970E-4,-7.974999957E-3
2.816318030E-1,9.624999948E-4,5.499999970E-4,-7.974999957E-3
2.841321890E-1,2.062499989E-3,5.499999970E-4,-6.874999963E-3
2.866327300E-1,-1.099999994E-3,5.499999970E-4,-7.974999957E-3
2.891331160E-1,-1.374999993E-4,1.649999991E-3,-6.874999963E-3
2.916336530E-1,9.624999948E-4,-5.499999970E-4,-6.874999963E-3
2.941339630E-1,-1.099999994E-3,-5.499999970E-4,-6.874999963E-3
2.966343450E-1,9.624999948E-4,-1.649999991E-3,-6.874999963E-3
2.991348840E-1,9.624999948E-4,-1.649999991E-3,-7.974999957E-3
3.016352700E-1,9.624999948E-4,-5.499999970E-4,-5.774999969E-3
3.041358070E-1,9.624999948E-4,-5.499999970E-4,-6.874999963E-3
3.066362120E-1,-1.099999994E-3,-1.649999991E-3,-5.774999969E-3
3.091367490E-1,-1.099999994E-3,-5.499999970E-4,-6.874999963E-3
3.116371350E-1,-1.374999993E-4,-5.499999970E-4,-7.974999957E-3
3.141376720E-1,-1.099999994E-3,-5.499999970E-4,-7.974999957E-3
3.166380580E-1,-1.099999994E-3,5.499999970E-4,-6.874999963E-3
3.191386050E-1,-1.374999993E-4,5.499999970E-4,-5.774999969E-3
3.216389920E-1,-2.199999988E-3,-5.499999970E-4,-4.812499974E-3
3.241395280E-1,9.624999948E-4,-1.649999991E-3,-4.812499974E-3
3.266399150E-1,-1.374999993E-4,1.649999991E-3,-5.774999969E-3
3.291402320E-1,-1.374999993E-4,5.499999970E-4,-2.612499986E-3
3.316408460E-1,-1.374999993E-4,-5.499999970E-4,-4.812499974E-3
3.341411550E-1,-1.374999993E-4,-5.499999970E-4,-2.612499986E-3
3.366417690E-1,-1.374999993E-4,5.499999970E-4,-2.612499986E-3
3.391420930E-1,-1.374999993E-4,1.649999991E-3,-1.649999991E-3
3.416427060E-1,-1.374999993E-4,-5.499999970E-4,-3.712499980E-3
3.441430160E-1,9.624999948E-4,-5.499999970E-4,-3.712499980E-3
3.466435520E-1,-1.099999994E-3,5.499999970E-4,-2.612499986E-3
3.491439390E-1,2.062499989E-3,-5.499999970E-4,-3.712499980E-3
3.516444750E-1,9.624999948E-4,-5.499999970E-4,-1.649999991E-3
3.541448620E-1,2.062499989E-3,-5.499999970E-4,-2.612499986E-3
3.566453980E-1,2.062499989E-3,5.499999970E-4,-2.612499986E-3
3.591457850E-1,-1.374999993E-4,-5.499999970E-4,-2.612499986E-3
3.616463020E-1,9.624999948E-4,5.499999970E-4,-1.649999991E-3
3.641466890E-1,9.624999948E-4,1.649999991E-3,-1.649999991E-3
3.666472250E-1,9.624999948E-4,-5.499999970E-4,5.499999970E-4
3.691476120E-1,-1.099999994E-3,1.649999991E-3,-1.649999991E-3
3.716481440E-1,-1.374999993E-4,5.499999970E-4,-1.649999991E-3
3.741484530E-1,-1.374999993E-4,5.499999970E-4,1.649999991E-3
3.766488360E-1,-1.374999993E-4,1.649999991E-3,-1.649999991E-3
3.791493740E-1,9.624999948E-4,-5.499999970E-4,5.499999970E-4
3.816497510E-1,-1.099999994E-3,1.649999991E-3,1.649999991E-3
3.841502870E-1,-1.374999993E-4,-5.499999970E-4,-5.499999970E-4
3.866506740E-1,-1.374999993E-4,-5.499999970E-4,-5.499999970E-4
3.891512110E-1,-1.374999993E-4,5.499999970E-4,1.649999991E-3
3.916516120E-1,2.062499989E-3,-5.499999970E-4,-1.649999991E-3
3.941521490E-1,9.624999948E-4,1.649999991E-3,5.499999970E-4
3.966525350E-1,-1.374999993E-4,-1.649999991E-3,-5.499999970E-4
3.991530720E-1,2.062499989E-3,5.499999970E-4,-1.649999991E-3
4.016533660E-1,9.624999948E-4,-5.499999970E-4,-2.612499986E-3
4.041539800E-1,9.624999948E-4,-5.499999970E-4,-2.612499986E-3
4.066542890E-1,-1.374999993E-4,-5.499999970E-4,-3.712499980E-3
4.091549030E-1,-1.374999993E-4,-1.649999991E-3,-5.774999969E-3
4.116552130E-1,9.624999948E-4,-1.649999991E-3,-6.874999963E-3
4.141555970E-1,-1.374999993E-4,-5.499999970E-4,-7.974999957E-3
4.166561340E-1,9.624999948E-4,-5.499999970E-4,-6.874999963E-3
4.191565200E-1,-1.374999993E-4,5.499999970E-4,-9.074999951E-3
4.216570570E-1,-1.374999993E-4,5.499999970E-4,-1.003750041E-2
4.241574580E-1,9.624999948E-4,-5.499999970E-4,-1.113750041E-2
4.266579950E-1,-1.374999993E-4,-5.499999970E-4,-1.113750041E-2
4.291583810E-1,9.624999948E-4,-5.499999970E-4,-1.223750040E-2
4.316589180E-1,-1.374999993E-4,5.499999970E-4,-1.333750039E-2
4.341593050E-1,-1.374999993E-4,-5.499999970E-4,-1.429999992E-2
4.366598410E-1,-2.199999988E-3,1.649999991E-3,-1.649999991E-2
4.391602280E-1,-1.374999993E-4,-1.649999991E-3,-1.649999991E-2
4.416607640E-1,-2.199999988E-3,-5.499999970E-4,-1.759999990E-2
4.441610740E-1,-1.374999993E-4,-5.499999970E-4,-1.649999991E-2
4.466616870E-1,-1.374999993E-4,-5.499999970E-4,-1.759999990E-2
4.491619970E-1,-1.374999993E-4,1.649999991E-3,-1.856249943E-2
4.516626100E-1,9.624999948E-4,-1.649999991E-3,-1.966249943E-2
4.541629000E-1,-1.374999993E-4,-5.499999970E-4,-1.856249943E-2
4.566632850E-1,-1.099999994E-3,-2.612499986E-3,-1.759999990E-2
4.591638210E-1,9.624999948E-4,-5.499999970E-4,-1.649999991E-2
4.616642080E-1,-1.099999994E-3,5.499999970E-4,-1.649999991E-2
4.641647450E-1,2.062499989E-3,5.499999970E-4,-1.429999992E-2
4.666651320E-1,2.062499989E-3,-5.499999970E-4,-1.429999992E-2
4.691656680E-1,-1.374999993E-4,-5.499999970E-4,-1.333750039E-2
4.716660550E-1,-1.374999993E-4,-5.499999970E-4,-1.429999992E-2
4.741665910E-1,-1.099999994E-3,5.499999970E-4,-1.333750039E-2
4.766669870E-1,-1.374999993E-4,5.499999970E-4,-1.223750040E-2
4.791675230E-1,-1.374999993E-4,-5.499999970E-4,-1.003750041E-2
4.816679100E-1,-1.374999993E-4,5.499999970E-4,-1.003750041E-2
4.841682180E-1,9.624999948E-4,5.499999970E-4,-1.003750041E-2
4.866687400E-1,-1.374999993E-4,-5.499999970E-4,-9.074999951E-3
4.891691270E-1,-1.374999993E-4,-1.649999991E-3,-9.074999951E-3
4.916696630E-1,9.624999948E-4,-5.499999970E-4,-9.074999951E-3
4.941700500E-1,-1.374999993E-4,-5.499999970E-4,-6.874999963E-3
4.966705760E-1,-1.099999994E-3,-1.649999991E-3,-7.974999957E-3
4.991709630E-1,-1.374999993E-4,-1.649999991E-3,-6.874999963E-3
5.016714990E-1,-1.099999994E-3,5.499999970E-4,-6.874999963E-3
5.041718860E-1,9.624999948E-4,-5.499999970E-4,-4.812499974E-3
5.066724040E-1,2.062499989E-3,5.499999970E-4,-6.874999963E-3
5.091727900E-1,9.624999948E-4,-5.499999970E-4,-4.812499974E-3
5.116730980E-1,-1.374999993E-4,5.499999970E-4,-3.712499980E-3
5.141737110E-1,9.624999948E-4,-5.499999970E-4,-3.712499980E-3
5.166740210E-1,-1.374999993E-4,-5.499999970E-4,-4.812499974E-3
5.191746480E-1,9.624999948E-4,5.499999970E-4,-1.649999991E-3
5.216749580E-1,9.624999948E-4,-1.649999991E-3,-2.612499986E-3
5.241754950E-1,2.062499989E-3,5.499999970E-4,-5.499999970E-4
5.266758810E-1,9.624999948E-4,-5.499999970E-4,-3.712499980E-3
5.291764230E-1,2.062499989E-3,5.499999970E-4,-1.649999991E-3
5.316768090E-1,2.062499989E-3,-5.499999970E-4,-1.649999991E-3
5.341773460E-1,-1.374999993E-4,5.499999970E-4,-2.612499986E-3
5.366777320E-1,-1.374999993E-4,5.499999970E-4,-2.612499986E-3
5.391783410E-1,9.624999948E-4,1.649999991E-3,-2.612499986E-3
5.416786500E-1,-1.374999993E-4,5.499999970E-4,-4.812499974E-3
5.441791870E-1,-1.374999993E-4,-5.499999970E-4,-3.712499980E-3
5.466795730E-1,-1.374999993E-4,5.499999970E-4,-4.812499974E-3
5.491801050E-1,9.624999948E-4,5.499999970E-4,-4.812499974E-3
5.516804920E-1,9.624999948E-4,-5.499999970E-4,-5.774999969E-3
5.541810280E-1,9.624999948E-4,5.499999970E-4,-5.774999969E-3
5.566814150E-1,-1.099999994E-3,-5.499999970E-4,-5.774999969E-3
5.591819320E-1,9.624999948E-4,5.499999970E-4,-5.774999969E-3
5.616823190E-1,9.624999948E-4,-1.649999991E-3,-6.874999963E-3
5.641828550E-1,9.624999948E-4,-5.499999970E-4,-6.874999963E-3
5.666832420E-1,9.624999948E-4,5.499999970E-4,-5.774999969E-3
5.691835500E-1,-1.374999993E-4,-5.499999970E-4,-7.974999957E-3
5.716840860E-1,9.624999948E-4,-5.499999970E-4,-7.974999957E-3
5.741844730E-1,9.624999948E-4,1.649999991E-3,-9.074999951E-3
5.766850090E-1,2.062499989E-3,5.499999970E-4,-1.003750041E-2
5.791853960E-1,-1.374999993E-4,-5.499999970E-4,-1.223750040E-2
5.816859370E-1,-1.374999993E-4,-5.499999970E-4,-1.113750041E-2
5.841863240E-1,-1.099999994E-3,-1.649999991E-3,-1.223750040E-2
5.866868600E-1,9.624999948E-4,5.499999970E-4,-1.429999992E-2
5.891872470E-1,-1.099999994E-3,-5.499999970E-4,-1.429999992E-2
5.916877680E-1,-1.374999993E-4,2.612499986E-3,-1.649999991E-2
5.941880780E-1,-1.374999993E-4,-5.499999970E-4,-1.649999991E-2
5.966884610E-1,9.624999948E-4,-5.499999970E-4,-1.759999990E-2
5.991889990E-1,-1.374999993E-4,5.499999970E-4,-1.856249943E-2
6.016893970E-1,-1.374999993E-4,-5.499999970E-4,-2.076249942E-2
6.041899330E-1,9.624999948E-4,-1.649999991E-3,-1.966249943E-2
6.066903200E-1,-1.099999994E-3,-5.499999970E-4,-2.076249942E-2
6.091908560E-1,-1.099999994E-3,-5.499999970E-4,-2.282499894E-2
6.116912430E-1,9.624999948E-4,-1.649999991E-3,-2.392499894E-2
6.141917740E-1,-1.099999994E-3,-1.649999991E-3,-2.282499894E-2
6.166921610E-1,2.062499989E-3,-5.499999970E-4,-2.282499894E-2
6.191926980E-1,9.624999948E-4,-5.499999970E-4,-2.282499894E-2
6.216930840E-1,-1.374999993E-4,-1.649999991E-3,-2.186249942E-2
6.241936210E-1,-1.099999994E-3,-1.649999991E-3,-2.392499894E-2
6.266940070E-1,-1.099999994E-3,-1.649999991E-3,-2.282499894E-2
6.291945440E-1,-1.374999993E-4,-5.499999970E-4,-2.392499894E-2
6.316949300E-1,-1.374999993E-4,-1.649999991E-3,-2.282499894E-2
6.341954620E-1,-1.374999993E-4,-1.649999991E-3,-2.186249942E-2
6.366958480E-1,-1.374999993E-4,-5.499999970E-4,-2.186249942E-2
6.391963850E-1,-1.099999994E-3,-5.499999970E-4,-2.076249942E-2
6.416967710E-1,-2.199999988E-3,-5.499999970E-4,-1.966249943E-2
6.441972790E-1,-1.374999993E-4,-5.499999970E-4,-1.856249943E-2
6.466976660E-1,-1.099999994E-3,5.499999970E-4,-1.759999990E-2
6.491982020E-1,9.624999948E-4,-5.499999970E-4,-1.759999990E-2
6.516985120E-1,2.062499989E-3,5.499999970E-4,-1.649999991E-2
6.541988940E-1,-1.099999994E-3,-5.499999970E-4,-1.429999992E-2
6.566994380E-1,-1.374999993E-4,-1.649999991E-3,-1.113750041E-2
6.591998240E-1,-1.374999993E-4,-5.499999970E-4,-1.003750041E-2
6.617003610E-1,-1.374999993E-4,-2.612499986E-3,-9.074999951E-3
6.642007480E-1,-1.374999993E-4,-5.499999970E-4,-6.874999963E-3
6.667012790E-1,2.062499989E-3,-5.499999970E-4,-4.812499974E-3
6.692016660E-1,-1.374999993E-4,-5.499999970E-4,-2.612499986E-3
6.717022020E-1,9.624999948E-4,-5.499999970E-4,5.499999970E-4
6.742025890E-1,9.624999948E-4,5.499999970E-4,5.499999970E-4
6.767031400E-1,-1.374999993E-4,5.499999970E-4,3.712499980E-3
6.792034500E-1,-1.099999994E-3,-5.499999970E-4,6.874999963E-3
6.817038330E-1,-1.374999993E-4,5.499999970E-4,5.912499968E-3
6.842043710E-1,-1.374999993E-4,-5.499999970E-4,7.974999957E-3
6.867047530E-1,-1.374999993E-4,2.612499986E-3,1.017499994E-2
6.892052890E-1,-1.374999993E-4,1.649999991E-3,1.113750041E-2
6.917056760E-1,-1.374999993E-4,5.499999970E-4,1.223750040E-2
6.942062120E-1,9.624999948E-4,-5.499999970E-4,1.443750039E-2
6.967065990E-1,-1.374999993E-4,-5.499999970E-4,1.759999990E-2
6.992071350E-1,-1.374999993E-4,1.649999991E-3,1.539999992E-2
7.017075220E-1,9.624999948E-4,1.649999991E-3,1.649999991E-2
7.042080580E-1,-1.374999993E-4,5.499999970E-4,1.539999992E-2
7.067084450E-1,9.624999948E-4,1.649999991E-3,1.869999990E-2
7.092089810E-1,-1.374999993E-4,-5.499999970E-4,1.649999991E-2
7.117093680E-1,-1.099999994E-3,5.499999970E-4,1.869999990E-2
7.142099050E-1,-1.374999993E-4,5.499999970E-4,1.759999990E-2
7.167102910E-1,-1.374999993E-4,1.649999991E-3,1.759999990E-2
7.192108280E-1,2.062499989E-3,1.649999991E-3,1.759999990E-2
7.217112330E-1,2.062499989E-3,1.649999991E-3,1.759999990E-2
7.242115410E-1,9.624999948E-4,-1.649999991E-3,1.539999992E-2
7.267120770E-1,9.624999948E-4,5.499999970E-4,1.539999992E-2
7.292124640E-1,-1.374999993E-4,5.499999970E-4,1.443750039E-2
7.317130000E-1,9.624999948E-4,5.499999970E-4,1.333750039E-2
7.342133870E-1,2.062499989E-3,1.649999991E-3,1.333750039E-2
7.367139240E-1,-1.374999993E-4,1.649999991E-3,1.113750041E-2
7.392143100E-1,-1.099999994E-3,5.499999970E-4,9.074999951E-3
7.417148470E-1,-1.374999993E-4,5.499999970E-4,9.074999951E-3
7.442152330E-1,-1.374999993E-4,5.499999970E-4,7.974999957E-3
7.467157700E-1,-1.099999994E-3,5.499999970E-4,5.912499968E-3
7.492161560E-1,-1.374999993E-4,-1.649999991E-3,3.712499980E-3
7.517166930E-1,9.624999948E-4,2.612499986E-3,3.712499980E-3
7.542170740E-1,-1.374999993E-4,-5.499999970E-4,3.712499980E-3
7.567176110E-1,-1.374999993E-4,5.499999970E-4,1.649999991E-3
7.592179980E-1,-1.099999994E-3,1.649999991E-3,1.649999991E-3
7.617185340E-1,-1.374999993E-4,5.499999970E-4,1.649999991E-3
7.642189210E-1,-1.374999993E-4,-5.499999970E-4,5.499999970E-4
7.667192280E-1,-1.099999994E-3,-1.649999991E-3,-5.499999970E-4
7.692197650E-1,9.624999948E-4,5.499999970E-4,-1.649999991E-3
7.717201510E-1,2.062499989E-3,-5.499999970E-4,-5.499999970E-4
7.742206880E-1,-1.374999993E-4,5.499999970E-4,-1.649999991E-3
7.767210800E-1,9.624999948E-4,1.649999991E-3,-5.499999970E-4
7.792216160E-1,-1.374999993E-4,-5.499999970E-4,-1.649999991E-3
7.817220030E-1,-1.374999993E-4,5.499999970E-4,-2.612499986E-3
7.842225390E-1,9.624999948E-4,1.649999991E-3,-1.649999991E-3
7.867229160E-1,-1.374999993E-4,5.499999970E-4,-5.499999970E-4
7.892234520E-1,-1.099999994E-3,-5.499999970E-4,5.499999970E-4
7.917237620E-1,-1.374999993E-4,1.649999991E-3,-1.649999991E-3
7.942241440E-1,-2.199999988E-3,5.499999970E-4,5.499999970E-4
7.967246830E-1,-1.374999993E-4,5.499999970E-4,1.649999991E-3
7.992250700E-1,-1.099999994E-3,5.499999970E-4,2.612499986E-3
8.017256060E-1,2.062499989E-3,5.499999970E-4,2.612499986E-3
8.042259930E-1,9.624999948E-4,5.499999970E-4,4.812499974E-3
8.067265530E-1,-1.374999993E-4,-5.499999970E-4,2.612499986E-3
8.092269400E-1,-1.099999994E-3,5.499999970E-4,6.874999963E-3
8.117274760E-1,9.624999948E-4,1.649999991E-3,4.812499974E-3
8.142278630E-1,-1.374999993E-4,5.499999970E-4,5.912499968E-3
8.167284040E-1,-1.374999993E-4,5.499999970E-4,5.912499968E-3
8.192287910E-1,9.624999948E-4,-5.499999970E-4,7.974999957E-3
8.217293270E-1,9.624999948E-4,5.499999970E-4,7.974999957E-3
8.242297140E-1,9.624999948E-4,-1.649999991E-3,6.874999963E-3
8.267302550E-1,9.624999948E-4,-5.499999970E-4,5.912499968E-3
8.292306420E-1,2.062499989E-3,-5.499999970E-4,7.974999957E-3
8.317311790E-1,-1.374999993E-4,5.499999970E-4,7.974999957E-3
8.342314880E-1,9.624999948E-4,1.649999991E-3,7.974999957E-3
8.367321020E-1,-1.374999993E-4,5.499999970E-4,5.912499968E-3
8.392324160E-1,-1.374999993E-4,5.499999970E-4,4.812499974E-3
8.417330300E-1,-1.374999993E-4,-1.649999991E-3,3.712499980E-3
8.442334160E-1,-1.374999993E-4,5.499999970E-4,3.712499980E-3
8.467339530E-1,9.624999948E-4,5.499999970E-4,2.612499986E-3
8.492342530E-1,-1.374999993E-4,5.499999970E-4,5.499999970E-4
8.517346350E-1,-1.374999993E-4,5.499999970E-4,-5.499999970E-4
8.542351740E-1,-1.099999994E-3,5.499999970E-4,-2.612499986E-3
8.567355600E-1,2.062499989E-3,-5.499999970E-4,-2.612499986E-3
8.592361020E-1,9.624999948E-4,-5.499999970E-4,-4.812499974E-3
8.617364880E-1,-1.099999994E-3,5.499999970E-4,-6.874999963E-3
8.642370250E-1,-1.374999993E-4,-1.649999991E-3,-7.974999957E-3
8.667374110E-1,-1.374999993E-4,5.499999970E-4,-1.223750040E-2
8.692379330E-1,-1.099999994E-3,-1.649999991E-3,-1.223750040E-2
8.717383200E-1,-1.099999994E-3,-5.499999970E-4,-1.333750039E-2
8.742388560E-1,-1.374999993E-4,-1.649999991E-3,-1.649999991E-2
8.767392430E-1,-1.374999993E-4,-5.499999970E-4,-1.966249943E-2
8.792395450E-1,-1.374999993E-4,-1.649999991E-3,-1.966249943E-2
8.817400820E-1,-1.374999993E-4,-1.649999991E-3,-2.282499894E-2
8.842404680E-1,-1.374999993E-4,-1.649999991E-3,-2.282499894E-2
8.867410050E-1,-1.099999994E-3,-1.649999991E-3,-2.612499893E-2
8.892413910E-1,-1.374999993E-4,-1.649999991E-3,-2.612499893E-2
8.917419190E-1,-1.374999993E-4,5.499999970E-4,-2.928750031E-2
8.942423060E-1,-1.099999994E-3,-1.649999991E-3,-3.135000169E-2
8.967428420E-1,-1.374999993E-4,-5.499999970E-4,-3.355000168E-2
8.992432290E-1,-1.099999994E-3,-5.499999970E-4,-3.244999796E-2
9.017437700E-1,-1.374999993E-4,-5.499999970E-4,-3.355000168E-2
9.042441570E-1,-1.099999994E-3,-5.499999970E-4,-3.451250121E-2
9.067446930E-1,-1.374999993E-4,-1.649999991E-3,-3.451250121E-2
9.092450800E-1,-1.374999993E-4,-2.612499986E-3,-3.561250120E-2
9.117453880E-1,-1.374999993E-4,-5.499999970E-4,-3.451250121E-2
9.142459380E-1,-1.374999993E-4,-1.649999991E-3,-3.561250120E-2
9.167463250E-1,-1.099999994E-3,-5.499999970E-4,-3.355000168E-2
9.192468610E-1,-1.099999994E-3,5.499999970E-4,-3.244999796E-2
9.217472480E-1,-1.374999993E-4,-5.499999970E-4,-3.355000168E-2
9.242477690E-1,-1.374999993E-4,-1.649999991E-3,-3.038750030E-2
9.267481560E-1,-1.374999993E-4,-5.499999970E-4,-2.818750031E-2
9.292486920E-1,9.624999948E-4,5.499999970E-4,-2.612499893E-2
9.317490790E-1,9.624999948E-4,-2.612499986E-3,-2.502499893E-2
9.342496110E-1,-1.374999993E-4,-1.649999991E-3,-2.392499894E-2
9.367499980E-1,-1.374999993E-4,-1.649999991E-3,-2.076249942E-2
9.392505340E-1,-1.374999993E-4,5.499999970E-4,-1.759999990E-2
9.417509210E-1,9.624999948E-4,-5.499999970E-4,-1.539999992E-2
9.442514580E-1,-1.374999993E-4,-5.499999970E-4,-1.429999992E-2
9.467518140E-1,-1.374999993E-4,-5.499999970E-4,-1.333750039E-2
9.492523510E-1,-1.374999993E-4,1.649999991E-3,-9.074999951E-3
9.517527370E-1,9.624999948E-4,-2.612499986E-3,-4.812499974E-3
9.542532740E-1,9.624999948E-4,5.499999970E-4,-3.712499980E-3
9.567536450E-1,9.624999948E-4,-5.499999970E-4,-5.499999970E-4
9.592541820E-1,-1.374999993E-4,-5.499999970E-4,1.649999991E-3
9.617545680E-1,2.062499989E-3,2.612499986E-3,2.612499986E-3
9.642548760E-1,-1.374999993E-4,5.499999970E-4,4.812499974E-3
9.667554280E-1,-1.374999993E-4,1.649999991E-3,5.912499968E-3
9.692558140E-1,2.062499989E-3,-5.499999970E-4,6.874999963E-3
9.717563510E-1,-1.099999994E-3,1.649999991E-3,6.874999963E-3
9.742567370E-1,2.062499989E-3,-1.649999991E-3,9.074999951E-3
9.767572740E-1,9.624999948E-4,-5.499999970E-4,7.974999957E-3
9.792576360E-1,9.624999948E-4,5.499999970E-4,9.074999951E-3
9.817581730E-1,2.062499989E-3,-5.499999970E-4,7.974999957E-3
9.842585590E-1,-1.374999993E-4,5.499999970E-4,9.074999951E-3
9.867590810E-1,3.162499983E-3,-5.499999970E-4,6.874999963E-3
9.892594680E-1,2.062499989E-3,5.499999970E-4,6.874999963E-3
9.917600040E-1,9.624999948E-4,-5.499999970E-4,4.812499974E-3
9.942603140E-1,-1.374999993E-4,5.499999970E-4,3.712499980E-3
9.967606960E-1,-1.374999993E-4,-1.649999991E-3,3.712499980E-3
9.992612400E-1,9.624999948E-4,5.499999970E-4,2.612499986E-3
1.001761626E0,-1.374999993E-4,1.649999991E-3,5.499999970E-4
1.004262163E0,9.624999948E-4,-5.499999970E-4,-5.499999970E-4
1.006762550E0,-1.374999993E-4,5.499999970E-4,-5.499999970E-4
1.009263091E0,2.062499989E-3,5.499999970E-4,-1.649999991E-3
1.011763478E0,-1.374999993E-4,5.499999970E-4,-2.612499986E-3
1.014264014E0,9.624999948E-4,5.499999970E-4,-2.612499986E-3
1.016764401E0,-1.374999993E-4,5.499999970E-4,-2.612499986E-3
1.019264951E0,-1.374999993E-4,1.649999991E-3,-4.812499974E-3
1.021765338E0,-1.374999993E-4,-5.499999970E-4,-5.774999969E-3
1.024265874E0,2.062499989E-3,-5.499999970E-4,-5.774999969E-3
1.026766261E0,9.624999948E-4,5.499999970E-4,-6.874999963E-3
1.029266797E0,9.624999948E-4,5.499999970E-4,-6.874999963E-3
1.031767179E0,-1.374999993E-4,-5.499999970E-4,-7.974999957E-3
1.034267715E0,2.062499989E-3,5.499999970E-4,-9.074999951E-3
1.036768025E0,9.624999948E-4,-5.499999970E-4,-9.074999951E-3
1.039268408E0,9.624999948E-4,-1.649999991E-3,-9.074999951E-3
1.041768970E0,-1.374999993E-4,-5.499999970E-4,-7.974999957E-3
1.044269357E0,-1.374999993E-4,-5.499999970E-4,-7.974999957E-3
1.046769893E0,-1.099999994E-3,-5.499999970E-4,-6.874999963E-3
1.049270280E0,9.624999948E-4,-5.499999970E-4,-4.812499974E-3
1.051770802E0,2.062499989E-3,5.499999970E-4,-4.812499974E-3
1.054271189E0,9.624999948E-4,1.649999991E-3,-3.712499980E-3
1.056771725E0,9.624999948E-4,5.499999970E-4,-1.649999991E-3
1.059272112E0,-1.374999993E-4,-5.499999970E-4,-5.499999970E-4
1.061772649E0,-1.374999993E-4,5.499999970E-4,1.649999991E-3
1.064273025E0,9.624999948E-4,-5.499999970E-4,3.712499980E-3
1.066773562E0,-1.374999993E-4,5.499999970E-4,6.874999963E-3
1.069273948E0,-1.374999993E-4,5.499999970E-4,9.074999951E-3
1.071774485E0,-1.374999993E-4,-5.499999970E-4,9.074999951E-3
1.074274866E0,-1.374999993E-4,1.649999991E-3,1.223750040E-2
1.076775403E0,9.624999948E-4,5.499999970E-4,1.443750039E-2
1.079275713E0,9.624999948E-4,1.649999991E-3,1.443750039E-2
1.081776095E0,9.624999948E-4,5.499999970E-4,1.869999990E-2
1.084276634E0,2.062499989E-3,5.499999970E-4,1.869999990E-2
1.086777015E0,2.062499989E-3,5.499999970E-4,2.076249942E-2
1.089277552E0,9.624999948E-4,2.612499986E-3,2.186249942E-2
1.091777938E0,2.062499989E-3,1.649999991E-3,2.392499894E-2
1.094278475E0,9.624999948E-4,1.649999991E-3,2.612499893E-2
1.096778866E0,-1.374999993E-4,1.649999991E-3,2.708750032E-2
1.099279403E0,9.624999948E-4,1.649999991E-3,2.708750032E-2
1.101779790E0,2.062499989E-3,2.612499986E-3,2.818750031E-2
1.104280326E0,9.624999948E-4,1.649999991E-3,2.928750031E-2
1.106780742E0,-1.374999993E-4,5.499999970E-4,2.818750031E-2
1.109281278E0,9.624999948E-4,5.499999970E-4,3.038750030E-2
1.111781588E0,2.062499989E-3,5.499999970E-4,2.928750031E-2
1.114281970E0,9.624999948E-4,1.649999991E-3,2.928750031E-2
1.116782534E0,-1.374999993E-4,2.612499986E-3,2.818750031E-2
1.119282920E0,-1.374999993E-4,1.649999991E-3,2.708750032E-2
1.121783457E0,9.624999948E-4,1.649999991E-3,2.282499894E-2
1.124283844E0,9.624999948E-4,1.649999991E-3,2.282499894E-2
1.126784399E0,9.624999948E-4,1.649999991E-3,1.869999990E-2
1.129284786E0,-1.374999993E-4,5.499999970E-4,1.759999990E-2
1.131785322E0,9.624999948E-4,5.499999970E-4,1.539999992E-2
1.134285709E0,-1.374999993E-4,-5.499999970E-4,1.113750041E-2
1.136786245E0,-1.099999994E-3,-5.499999970E-4,1.017499994E-2
1.139286632E0,-1.374999993E-4,5.499999970E-4,9.074999951E-3
1.141787168E0,2.062499989E-3,-5.499999970E-4,4.812499974E-3
1.144287555E0,2.062499989E-3,-5.499999970E-4,5.499999970E-4
1.146788091E0,-1.374999993E-4,-5.499999970E-4,5.499999970E-4
1.149288483E0,-1.374999993E-4,-5.499999970E-4,5.499999970E-4
1.151789019E0,2.062499989E-3,5.499999970E-4,-2.612499986E-3
1.154289406E0,-1.374999993E-4,-1.649999991E-3,-4.812499974E-3
1.156789943E0,-1.374999993E-4,5.499999970E-4,-3.712499980E-3
1.159290338E0,9.624999948E-4,-5.499999970E-4,-9.074999951E-3
1.161790875E0,-1.374999993E-4,-5.499999970E-4,-9.074999951E-3
1.164291184E0,9.624999948E-4,1.649999991E-3,-1.113750041E-2
1.166791567E0,-1.374999993E-4,5.499999970E-4,-1.113750041E-2
1.169292081E0,9.624999948E-4,5.499999970E-4,-1.429999992E-2
1.171792468E0,-1.099999994E-3,-5.499999970E-4,-1.429999992E-2
1.174293005E0,-1.374999993E-4,-5.499999970E-4,-1.649999991E-2
1.176793391E0,-1.374999993E-4,-1.649999991E-3,-1.649999991E-2
1.179293909E0,-1.374999993E-4,5.499999970E-4,-1.649999991E-2
1.181794295E0,-1.374999993E-4,-5.499999970E-4,-1.649999991E-2
1.184294832E0,9.624999948E-4,-5.499999970E-4,-1.856249943E-2
1.186795218E0,9.624999948E-4,-5.499999970E-4,-1.759999990E-2
1.189295750E0,-1.374999993E-4,5.499999970E-4,-1.856249943E-2
1.191796136E0,-1.374999993E-4,-5.499999970E-4,-1.759999990E-2
1.194296444E0,-1.099999994E-3,-5.499999970E-4,-1.966249943E-2
1.196796981E0,-1.099999994E-3,-5.499999970E-4,-1.539999992E-2
1.199297367E0,9.624999948E-4,-1.649999991E-3,-1.649999991E-2
1.201797890E0,9.624999948E-4,-5.499999970E-4,-1.759999990E-2
1.204298276E0,9.624999948E-4,5.499999970E-4,-1.539999992E-2
1.206798813E0,-1.374999993E-4,5.499999970E-4,-1.223750040E-2
1.209299199E0,-1.374999993E-4,5.499999970E-4,-1.649999991E-2
1.211799726E0,-1.099999994E-3,-5.499999970E-4,-1.223750040E-2
1.214300112E0,9.624999948E-4,-2.612499986E-3,-1.223750040E-2
1.216800649E0,-2.199999988E-3,5.499999970E-4,-1.113750041E-2
1.219301036E0,-1.099999994E-3,-5.499999970E-4,-1.003750041E-2
1.221801572E0,9.624999948E-4,-5.499999970E-4,-9.074999951E-3
1.224301959E0,-1.374999993E-4,5.499999970E-4,-7.974999957E-3
1.226802266E0,-1.099999994E-3,1.649999991E-3,-6.874999963E-3
1.229302880E0,-1.099999994E-3,5.499999970E-4,-5.774999969E-3
1.231803189E0,-1.374999993E-4,-5.499999970E-4,-5.774999969E-3
1.234303808E0,9.624999948E-4,5.499999970E-4,-5.499999970E-4
1.236804118E0,9.624999948E-4,-5.499999970E-4,-5.499999970E-4
1.239304731E0,-1.374999993E-4,5.499999970E-4,1.649999991E-3
1.241805041E0,9.624999948E-4,1.649999991E-3,2.612499986E-3
1.244305668E0,9.624999948E-4,5.499999970E-4,3.712499980E-3
1.246805978E0,-1.374999993E-4,5.499999970E-4,5.912499968E-3
1.249306514E0,9.624999948E-4,-5.499999970E-4,7.974999957E-3
1.251806901E0,-1.374999993E-4,1.649999991E-3,9.074999951E-3
1.254307438E0,2.062499989E-3,5.499999970E-4,1.017499994E-2
1.256807825E0,-1.374999993E-4,5.499999970E-4,1.333750039E-2
1.259308361E0,-1.374999993E-4,1.649999991E-3,1.539999992E-2
1.261808748E0,-1.374999993E-4,-1.649999991E-3,1.539999992E-2
1.264309284E0,-1.374999993E-4,5.499999970E-4,1.443750039E-2
1.266809666E0,-1.374999993E-4,-1.649999991E-3,1.539999992E-2
1.269310203E0,2.062499989E-3,-5.499999970E-4,1.759999990E-2
1.271810589E0,-1.374999993E-4,5.499999970E-4,1.539999992E-2
1.274311126E0,-1.374999993E-4,2.612499986E-3,1.759999990E-2
1.276811420E0,9.624999948E-4,5.499999970E-4,1.869999990E-2
1.279311803E0,9.624999948E-4,5.499999970E-4,1.759999990E-2
1.281812341E0,9.624999948E-4,1.649999991E-3,1.759999990E-2
1.284312728E0,-1.374999993E-4,5.499999970E-4,1.759999990E-2
1.286813239E0,-1.374999993E-4,5.499999970E-4,1.649999991E-2
1.289313626E0,9.624999948E-4,1.649999991E-3,1.649999991E-2
1.291814163E0,9.624999948E-4,1.649999991E-3,1.649999991E-2
1.294314549E0,9.624999948E-4,-5.499999970E-4,1.539999992E-2
1.296815086E0,9.624999948E-4,-5.499999970E-4,1.539999992E-2
1.299315496E0,-1.374999993E-4,5.499999970E-4,1.333750039E-2
1.301816033E0,-1.374999993E-4,5.499999970E-4,1.333750039E-2
1.304316342E0,-1.374999993E-4,5.499999970E-4,1.017499994E-2
1.306816956E0,9.624999948E-4,-5.499999970E-4,9.074999951E-3
1.309317266E0,2.062499989E-3,1.649999991E-3,7.974999957E-3
1.311817650E0,9.624999948E-4,5.499999970E-4,5.912499968E-3
1.314318187E0,-1.374999993E-4,-5.499999970E-4,2.612499986E-3
1.316818573E0,-1.374999993E-4,5.499999970E-4,3.712499980E-3
1.319319110E0,-1.374999993E-4,-5.499999970E-4,1.649999991E-3
1.321819506E0,-1.374999993E-4,5.499999970E-4,-5.499999970E-4
1.324320043E0,-1.374999993E-4,1.649999991E-3,5.499999970E-4
1.326820429E0,9.624999948E-4,1.649999991E-3,-2.612499986E-3
1.329320966E0,-1.374999993E-4,5.499999970E-4,-3.712499980E-3
1.331821367E0,9.624999948E-4,-5.499999970E-4,-2.612499986E-3
1.334321903E0,2.062499989E-3,5.499999970E-4,-3.712499980E-3
1.336822290E0,-1.374999993E-4,-5.499999970E-4,-4.812499974E-3
1.339322826E0,-1.099999994E-3,1.649999991E-3,-3.712499980E-3
1.341823213E0,9.624999948E-4,-1.649999991E-3,-5.774999969E-3
1.344323749E0,9.624999948E-4,-5.499999970E-4,-5.774999969E-3
1.346824136E0,9.624999948E-4,1.649999991E-3,-5.774999969E-3
1.349324672E0,-1.374999993E-4,-5.499999970E-4,-3.712499980E-3
1.351824982E0,2.062499989E-3,-5.499999970E-4,-5.774999969E-3
1.354325365E0,9.624999948E-4,-5.499999970E-4,-4.812499974E-3
1.356825903E0,-1.374999993E-4,-5.499999970E-4,-3.712499980E-3
1.359326290E0,9.624999948E-4,-1.649999991E-3,-3.712499980E-3
1.361826822E0,9.624999948E-4,5.499999970E-4,-3.712499980E-3
1.364327209E0,-1.099999994E-3,5.499999970E-4,-3.712499980E-3
1.366827745E0,9.624999948E-4,5.499999970E-4,-3.712499980E-3
1.369328132E0,-1.099999994E-3,-5.499999970E-4,-3.712499980E-3
1.371828668E0,9.624999948E-4,5.499999970E-4,-4.812499974E-3
1.374329059E0,-1.374999993E-4,5.499999970E-4,-3.712499980E-3
1.376829595E0,-1.374999993E-4,5.499999970E-4,-5.499999970E-4
1.379329982E0,9.624999948E-4,-5.499999970E-4,-5.499999970E-4
1.381830518E0,-1.374999993E-4,5.499999970E-4,-1.649999991E-3
1.384330881E0,9.624999948E-4,5.499999970E-4,5.499999970E-4
1.386831189E0,9.624999948E-4,-5.499999970E-4,1.649999991E-3
1.389331725E0,9.624999948E-4,5.499999970E-4,2.612499986E-3
1.391832112E0,9.624999948E-4,1.649999991E-3,3.712499980E-3
1.394332663E0,-1.374999993E-4,-5.499999970E-4,4.812499974E-3
1.396833050E0,2.062499989E-3,5.499999970E-4,5.912499968E-3
1.399333586E0,-1.374999993E-4,-5.499999970E-4,6.874999963E-3
1.401833973E0,9.624999948E-4,5.499999970E-4,1.113750041E-2
1.404334510E0,-1.099999994E-3,-1.649999991E-3,9.074999951E-3
1.406834896E0,-1.374999993E-4,-5.499999970E-4,1.017499994E-2
1.409335433E0,-1.099999994E-3,-5.499999970E-4,1.223750040E-2
1.411835819E0,-1.374999993E-4,5.499999970E-4,1.223750040E-2
1.414336356E0,-1.374999993E-4,5.499999970E-4,1.223750040E-2
1.416836747E0,-1.374999993E-4,5.499999970E-4,1.113750041E-2
1.419337055E0,9.624999948E-4,5.499999970E-4,1.443750039E-2
1.421837592E0,-1.374999993E-4,5.499999970E-4,1.539999992E-2
1.424337978E0,-1.374999993E-4,1.649999991E-3,1.443750039E-2
1.426838500E0,9.624999948E-4,5.499999970E-4,1.539999992E-2
1.429338886E0,-1.374999993E-4,2.612499986E-3,1.539999992E-2
1.431839423E0,-1.374999993E-4,5.499999970E-4,1.539999992E-2
1.434339809E0,9.624999948E-4,-5.499999970E-4,1.649999991E-2
1.436840346E0,-1.099999994E-3,1.649999991E-3,1.649999991E-2
1.439340751E0,2.062499989E-3,5.499999970E-4,1.759999990E-2
1.441841288E0,9.624999948E-4,-5.499999970E-4,1.649999991E-2
1.444341674E0,9.624999948E-4,-5.499999970E-4,1.869999990E-2
1.446842211E0,2.062499989E-3,5.499999970E-4,1.759999990E-2
1.449342598E0,-1.374999993E-4,1.649999991E-3,1.539999992E-2
1.451843134E0,9.624999948E-4,5.499999970E-4,1.333750039E-2
1.454343521E0,-1.374999993E-4,1.649999991E-3,1.223750040E-2
1.456844057E0,9.624999948E-4,-1.649999991E-3,1.223750040E-2
1.459344454E0,9.624999948E-4,1.649999991E-3,1.113750041E-2
1.461844990E0,9.624999948E-4,1.649999991E-3,1.113750041E-2
1.464345377E0,9.624999948E-4,-5.499999970E-4,7.974999957E-3
1.466845913E0,9.624999948E-4,-1.649999991E-3,5.912499968E-3
1.469346300E0,9.624999948E-4,5.499999970E-4,4.812499974E-3
1.471846593E0,-1.374999993E-4,-5.499999970E-4,3.712499980E-3
1.474347129E0,-1.374999993E-4,1.649999991E-3,2.612499986E-3
1.476847516E0,9.624999948E-4,1.649999991E-3,5.499999970E-4
1.479348052E0,9.624999948E-4,1.649999991E-3,2.612499986E-3
1.481848430E0,9.624999948E-4,-5.499999970E-4,5.499999970E-4
1.484348966E0,-1.099999994E-3,-5.499999970E-4,-5.499999970E-4
1.486849353E0,-1.374999993E-4,5.499999970E-4,-2.612499986E-3
1.489349889E0,-1.099999994E-3,5.499999970E-4,-4.812499974E-3
1.491850276E0,-1.374999993E-4,-1.649999991E-3,-5.774999969E-3
1.494350812E0,-1.374999993E-4,5.499999970E-4,-6.874999963E-3
1.496851122E0,-1.374999993E-4,-5.499999970E-4,-7.974999957E-3
1.499351505E0,-1.099999994E-3,-5.499999970E-4,-7.974999957E-3
1.501852043E0,-1.374999993E-4,-1.649999991E-3,-1.113750041E-2
1.504352415E0,9.624999948E-4,-5.499999970E-4,-1.333750039E-2
1.506852951E0,9.624999948E-4,-5.499999970E-4,-1.333750039E-2
1.509353338E0,-1.099999994E-3,5.499999970E-4,-1.539999992E-2
1.511853874E0,-1.374999993E-4,-2.612499986E-3,-1.649999991E-2
1.514354285E0,-1.374999993E-4,-5.499999970E-4,-1.429999992E-2
1.516854822E0,-1.099999994E-3,5.499999970E-4,-1.539999992E-2
1.519355208E0,-1.374999993E-4,1.649999991E-3,-1.429999992E-2
1.521855745E0,-1.374999993E-4,-5.499999970E-4,-1.429999992E-2
1.524356131E0,9.624999948E-4,-5.499999970E-4,-1.649999991E-2
1.526856668E0,-1.374999993E-4,-1.649999991E-3,-1.429999992E-2
1.529356977E0,-1.374999993E-4,-5.499999970E-4,-1.223750040E-2
1.531857591E0,-1.374999993E-4,5.499999970E-4,-9.074999951E-3
1.534357968E0,-1.374999993E-4,-5.499999970E-4,-7.974999957E-3
1.536858505E0,9.624999948E-4,5.499999970E-4,-6.874999963E-3
1.539358891E0,-1.099999994E-3,-5.499999970E-4,-5.774999969E-3
1.541859428E0,9.624999948E-4,5.499999970E-4,-3.712499980E-3
1.544359733E0,-1.099999994E-3,1.649999991E-3,-2.612499986E-3
1.546860346E0,-1.374999993E-4,5.499999970E-4,-1.649999991E-3
1.549360656E0,9.624999948E-4,-5.499999970E-4,5.499999970E-4
1.551861040E0,-1.374999993E-4,5.499999970E-4,2.612499986E-3
1.554361577E0,-1.374999993E-4,5.499999970E-4,3.712499980E-3
1.556861987E0,-1.374999993E-4,5.499999970E-4,5.912499968E-3
1.559362524E0,-1.374999993E-4,5.499999970E-4,5.912499968E-3
1.561862911E0,9.624999948E-4,-5.499999970E-4,9.074999951E-3
1.564363447E0,9.624999948E-4,5.499999970E-4,1.017499994E-2
1.566863824E0,9.624999948E-4,-5.499999970E-4,1.017499994E-2
1.569364360E0,9.624999948E-4,-5.499999970E-4,1.113750041E-2
1.571864747E0,2.062499989E-3,1.649999991E-3,1.333750039E-2
1.574365283E0,9.624999948E-4,5.499999970E-4,1.333750039E-2
1.576865670E0,-1.374999993E-4,5.499999970E-4,1.443750039E-2
1.579366206E0,3.162499983E-3,-5.499999970E-4,1.649999991E-2
1.581866516E0,9.624999948E-4,1.649999991E-3,1.443750039E-2
1.584366899E0,-1.099999994E-3,1.649999991E-3,1.649999991E-2
1.586867423E0,2.062499989E-3,1.649999991E-3,1.759999990E-2
1.589367810E0,-1.374999993E-4,1.649999991E-3,1.649999991E-2
1.591868346E0,-1.374999993E-4,-5.499999970E-4,1.759999990E-2
1.594368733E0,-1.374999993E-4,5.499999970E-4,1.539999992E-2
1.596869278E0,2.062499989E-3,1.649999991E-3,1.539999992E-2
1.599369665E0,-1.099999994E-3,1.649999991E-3,1.443750039E-2
1.601870201E0,9.624999948E-4,5.499999970E-4,1.443750039E-2
1.604370588E0,-1.374999993E-4,-5.499999970E-4,1.017499994E-2
1.606870896E0,-1.374999993E-4,5.499999970E-4,1.017499994E-2
1.609371427E0,-1.374999993E-4,1.649999991E-3,6.874999963E-3
1.611871814E0,9.624999948E-4,-5.499999970E-4,5.912499968E-3
1.614372427E0,-1.099999994E-3,-5.499999970E-4,2.612499986E-3
1.616872737E0,9.624999948E-4,-1.649999991E-3,2.612499986E-3
1.619373326E0,-1.099999994E-3,1.649999991E-3,1.649999991E-3
1.621873636E0,9.624999948E-4,5.499999970E-4,-5.499999970E-4
1.624374249E0,-1.374999993E-4,5.499999970E-4,-2.612499986E-3
1.626874559E0,2.062499989E-3,-5.499999970E-4,-5.774999969E-3
1.629375100E0,-1.374999993E-4,5.499999970E-4,-5.774999969E-3
1.631875487E0,-1.099999994E-3,-5.499999970E-4,-7.974999957E-3
1.634376024E0,9.624999948E-4,1.649999991E-3,-1.003750041E-2
1.636876410E0,-1.374999993E-4,-5.499999970E-4,-1.003750041E-2
1.639376937E0,-1.374999993E-4,-5.499999970E-4,-1.333750039E-2
1.641877323E0,-1.374999993E-4,-5.499999970E-4,-1.649999991E-2
1.644377860E0,-1.099999994E-3,-5.499999970E-4,-1.759999990E-2
1.646878246E0,-1.374999993E-4,5.499999970E-4,-2.076249942E-2
1.649378783E0,-1.374999993E-4,-5.499999970E-4,-2.186249942E-2
1.651879169E0,-1.374999993E-4,-5.499999970E-4,-2.282499894E-2
1.654379477E0,-1.374999993E-4,-1.649999991E-3,-2.612499893E-2
1.656880091E0,-2.199999988E-3,-5.499999970E-4,-2.502499893E-2
1.659380377E0,-1.374999993E-4,-5.499999970E-4,-2.708750032E-2
1.661880991E0,-1.374999993E-4,5.499999970E-4,-2.708750032E-2
1.664381300E0,-1.374999993E-4,-5.499999970E-4,-2.708750032E-2
1.666881837E0,-1.374999993E-4,-1.649999991E-3,-2.928750031E-2
1.669382223E0,9.624999948E-4,-5.499999970E-4,-2.928750031E-2
1.671882779E0,-1.099999994E-3,-1.649999991E-3,-2.928750031E-2
1.674383165E0,9.624999948E-4,-1.649999991E-3,-2.928750031E-2
1.676883702E0,-1.374999993E-4,-5.499999970E-4,-2.818750031E-2
1.679384089E0,-2.199999988E-3,-5.499999970E-4,-2.818750031E-2
1.681884625E0,-1.099999994E-3,-5.499999970E-4,-2.818750031E-2
1.684385012E0,-1.374999993E-4,-5.499999970E-4,-2.612499893E-2
1.686885548E0,-1.374999993E-4,-5.499999970E-4,-2.612499893E-2
1.689385858E0,-1.374999993E-4,-1.649999991E-3,-2.502499893E-2
1.691886244E0,-1.374999993E-4,-1.649999991E-3,-2.392499894E-2
1.694386783E0,-1.374999993E-4,-1.649999991E-3,-2.186249942E-2
1.696887170E0,-1.099999994E-3,5.499999970E-4,-2.076249942E-2
1.699387706E0,-2.199999988E-3,-5.499999970E-4,-1.966249943E-2
1.701888108E0,9.624999948E-4,-1.649999991E-3,-1.856249943E-2
1.704388644E0,-1.374999993E-4,-5.499999970E-4,-1.539999992E-2
1.706889031E0,-1.374999993E-4,-5.499999970E-4,-1.333750039E-2
1.709389567E0,-1.374999993E-4,-5.499999970E-4,-1.003750041E-2
1.711889973E0,9.624999948E-4,-5.499999970E-4,-1.003750041E-2
1.714390509E0,-1.099999994E-3,5.499999970E-4,-4.812499974E-3
1.716890896E0,3.162499983E-3,5.499999970E-4,-3.712499980E-3
1.719391432E0,-1.374999993E-4,-5.499999970E-4,-5.499999970E-4
1.721891814E0,9.624999948E-4,1.649999991E-3,-5.499999970E-4
1.724392350E0,-1.374999993E-4,5.499999970E-4,2.612499986E-3
1.726892660E0,-1.099999994E-3,-5.499999970E-4,5.912499968E-3
1.729393274E0,-1.374999993E-4,1.649999991E-3,7.974999957E-3
1.731893583E0,9.624999948E-4,1.649999991E-3,9.074999951E-3
1.734393987E0,-1.374999993E-4,-5.499999970E-4,1.223750040E-2
1.736894523E0,-1.374999993E-4,1.649999991E-3,1.443750039E-2
1.739394910E0,-1.374999993E-4,-5.499999970E-4,1.443750039E-2
1.741895446E0,9.624999948E-4,5.499999970E-4,1.759999990E-2
1.744395838E0,-1.099999994E-3,1.649999991E-3,1.966249943E-2
1.746896375E0,9.624999948E-4,5.499999970E-4,1.869999990E-2
1.749396761E0,-1.374999993E-4,1.649999991E-3,2.076249942E-2
1.751897298E0,9.624999948E-4,5.499999970E-4,2.186249942E-2
1.754397694E0,9.624999948E-4,5.499999970E-4,2.076249942E-2
1.756898231E0,9.624999948E-4,5.499999970E-4,1.966249943E-2
1.759398617E0,9.624999948E-4,1.649999991E-3,2.186249942E-2
1.761899154E0,-1.374999993E-4,3.712499980E-3,2.186249942E-2
1.764399530E0,9.624999948E-4,5.499999970E-4,1.966249943E-2
1.766899838E0,9.624999948E-4,-5.499999970E-4,1.869999990E-2
1.769400375E0,9.624999948E-4,1.649999991E-3,1.759999990E-2
1.771900761E0,-1.374999993E-4,-5.499999970E-4,1.759999990E-2
1.774401298E0,9.624999948E-4,1.649999991E-3,1.649999991E-2
1.776901689E0,-1.374999993E-4,5.499999970E-4,1.759999990E-2
1.779402226E0,-1.374999993E-4,1.649999991E-3,1.443750039E-2
1.781902612E0,2.062499989E-3,5.499999970E-4,1.333750039E-2
1.784403149E0,-1.374999993E-4,5.499999970E-4,1.113750041E-2
1.786903549E0,9.624999948E-4,2.612499986E-3,1.017499994E-2
1.789404086E0,-1.374999993E-4,-5.499999970E-4,7.974999957E-3
1.791904473E0,9.624999948E-4,-5.499999970E-4,5.912499968E-3
1.794405009E0,-1.099999994E-3,1.649999991E-3,4.812499974E-3
1.796905396E0,-1.099999994E-3,-5.499999970E-4,2.612499986E-3
1.799405703E0,9.624999948E-4,5.499999970E-4,1.649999991E-3
1.801906317E0,-1.374999993E-4,5.499999970E-4,-5.499999970E-4
1.804406626E0,-1.374999993E-4,1.649999991E-3,-2.612499986E-3
1.806907158E0,9.624999948E-4,-5.499999970E-4,-2.612499986E-3
1.809407545E0,9.624999948E-4,5.499999970E-4,-5.774999969E-3
1.811908081E0,9.624999948E-4,5.499999970E-4,-5.774999969E-3
1.814408468E0,9.624999948E-4,-5.499999970E-4,-6.874999963E-3
1.816909000E0,-1.374999993E-4,5.499999970E-4,-7.974999957E-3
1.819409387E0,-1.374999993E-4,-5.499999970E-4,-9.074999951E-3
1.821909923E0,9.624999948E-4,1.649999991E-3,-1.003750041E-2
1.824410310E0,-1.374999993E-4,-5.499999970E-4,-1.003750041E-2
1.826910846E0,-1.374999993E-4,-5.499999970E-4,-7.974999957E-3
1.829411242E0,-1.374999993E-4,-1.649999991E-3,-9.074999951E-3
1.831911778E0,9.624999948E-4,-5.499999970E-4,-9.074999951E-3
1.834412165E0,2.062499989E-3,-5.499999970E-4,-9.074999951E-3
1.836912473E0,9.624999948E-4,5.499999970E-4,-7.974999957E-3
1.839413081E0,-1.374999993E-4,1.649999991E-3,-7.974999957E-3
1.841913620E0,-1.374999993E-4,-5.499999970E-4,-5.774999969E-3
1.844414006E0,-1.099999994E-3,1.649999991E-3,-2.612499986E-3
1.846914543E0,-1.374999993E-4,-5.499999970E-4,-1.649999991E-3
1.849414929E0,-1.374999993E-4,5.499999970E-4,-2.612499986E-3
1.851915237E0,-2.199999988E-3,-5.499999970E-4,1.649999991E-3
1.854415773E0,-1.099999994E-3,1.649999991E-3,1.649999991E-3
1.856916160E0,-1.099999994E-3,5.499999970E-4,5.499999970E-4
1.859416696E0,9.624999948E-4,-5.499999970E-4,2.612499986E-3
1.861917093E0,2.062499989E-3,-5.499999970E-4,3.712499980E-3
1.864417630E0,9.624999948E-4,5.499999970E-4,4.812499974E-3
1.866918016E0,9.624999948E-4,5.499999970E-4,4.812499974E-3
1.869418553E0,9.624999948E-4,5.499999970E-4,4.812499974E-3
1.871918929E0,3.162499983E-3,-5.499999970E-4,6.874999963E-3
1.874419466E0,9.624999948E-4,-5.499999970E-4,5.912499968E-3
1.876919775E0,9.624999948E-4,5.499999970E-4,6.874999963E-3
1.879420158E0,-1.374999993E-4,5.499999970E-4,6.874999963E-3
1.881920683E0,9.624999948E-4,-5.499999970E-4,5.912499968E-3
1.884421069E0,-1.374999993E-4,-5.499999970E-4,6.874999963E-3
1.886921606E0,9.624999948E-4,-5.499999970E-4,5.912499968E-3
1.889421992E0,9.624999948E-4,5.499999970E-4,2.612499986E-3
1.891922529E0,-1.374999993E-4,-5.499999970E-4,2.612499986E-3
1.894422915E0,9.624999948E-4,5.499999970E-4,1.649999991E-3
1.896923452E0,-1.374999993E-4,1.649999991E-3,1.649999991E-3
1.899423838E0,-1.374999993E-4,5.499999970E-4,5.499999970E-4
1.901924375E0,-1.374999993E-4,5.499999970E-4,-2.612499986E-3
1.904424675E0,-1.374999993E-4,5.499999970E-4,-5.774999969E-3
1.906925288E0,9.624999948E-4,-5.499999970E-4,-6.874999963E-3
1.909425598E0,2.062499989E-3,5.499999970E-4,-9.074999951E-3
1.911926211E0,9.624999948E-4,-5.499999970E-4,-1.113750041E-2
1.914426511E0,-1.099999994E-3,-1.649999991E-3,-1.223750040E-2
1.916927124E0,-1.374999993E-4,-5.499999970E-4,-1.429999992E-2
1.919427511E0,-1.374999993E-4,-1.649999991E-3,-1.539999992E-2
1.921928047E0,-1.374999993E-4,-5.499999970E-4,-1.649999991E-2
1.924428343E0,-1.374999993E-4,-1.649999991E-3,-1.759999990E-2
1.926928956E0,9.624999948E-4,-5.499999970E-4,-1.856249943E-2
1.929429266E0,-1.374999993E-4,-1.649999991E-3,-1.759999990E-2
1.931929651E0,-1.374999993E-4,-5.499999970E-4,-1.966249943E-2
1.934430187E0,9.624999948E-4,1.649999991E-3,-1.966249943E-2
1.936930574E0,9.624999948E-4,5.499999970E-4,-1.759999990E-2
1.939431110E0,-1.099999994E-3,5.499999970E-4,-1.856249943E-2
1.941931497E0,-1.374999993E-4,5.499999970E-4,-1.966249943E-2
1.944432033E0,-1.374999993E-4,-5.499999970E-4,-1.759999990E-2
1.946932429E0,-1.374999993E-4,5.499999970E-4,-1.649999991E-2
1.949432965E0,-1.099999994E-3,1.649999991E-3,-1.429999992E-2
1.951933352E0,-1.374999993E-4,5.499999970E-4,-1.333750039E-2
1.954433888E0,-1.374999993E-4,-5.499999970E-4,-1.113750041E-2
1.956934208E0,-1.374999993E-4,5.499999970E-4,-1.003750041E-2
1.959434591E0,9.624999948E-4,-5.499999970E-4,-9.074999951E-3
1.961935129E0,-1.374999993E-4,-5.499999970E-4,-6.874999963E-3
1.964435516E0,9.624999948E-4,5.499999970E-4,-4.812499974E-3
1.966936038E0,9.624999948E-4,5.499999970E-4,-2.612499986E-3
1.969436425E0,-1.374999993E-4,-5.499999970E-4,-5.499999970E-4
1.971936961E0,-1.374999993E-4,-5.499999970E-4,2.612499986E-3
1.974437348E0,9.624999948E-4,5.499999970E-4,1.649999991E-3
1.976937894E0,-1.374999993E-4,5.499999970E-4,4.812499974E-3
1.979438280E0,-1.374999993E-4,5.499999970E-4,9.074999951E-3
1.981938817E0,9.624999948E-4,-1.649999991E-3,9.074999951E-3
1.984439203E0,-1.374999993E-4,-5.499999970E-4,1.017499994E-2
1.986939526E0,9.624999948E-4,5.499999970E-4,1.223750040E-2
1.989440139E0,9.624999948E-4,1.649999991E-3,1.223750040E-2
1.991940449E0,9.624999948E-4,-1.649999991E-3,1.443750039E-2
1.994441062E0,9.624999948E-4,1.649999991E-3,1.759999990E-2
1.996941372E0,-1.374999993E-4,5.499999970E-4,2.076249942E-2
1.999441986E0,-1.099999994E-3,1.649999991E-3,1.966249943E-2
2.001942295E0,9.624999948E-4,5.499999970E-4,2.186249942E-2
2.004442909E0,9.624999948E-4,1.649999991E-3,2.282499894E-2
2.006943218E0,9.624999948E-4,1.649999991E-3,2.392499894E-2
2.009443755E0,2.062499989E-3,1.649999991E-3,2.502499893E-2
2.011944141E0,-1.374999993E-4,1.649999991E-3,2.818750031E-2
2.014444678E0,9.624999948E-4,5.499999970E-4,2.818750031E-2
2.016945064E0,9.624999948E-4,1.649999991E-3,3.038750030E-2
2.019445591E0,9.624999948E-4,5.499999970E-4,2.928750031E-2
2.021945978E0,9.624999948E-4,-5.499999970E-4,3.135000169E-2
2.024446514E0,-1.374999993E-4,1.649999991E-3,3.135000169E-2
2.026946901E0,2.062499989E-3,5.499999970E-4,3.135000169E-2
2.029447432E0,2.062499989E-3,1.649999991E-3,3.244999796E-2
2.031947819E0,2.062499989E-3,5.499999970E-4,3.244999796E-2
2.034448126E0,2.062499989E-3,-5.499999970E-4,3.244999796E-2
2.036948740E0,2.062499989E-3,1.649999991E-3,3.135000169E-2
2.039449045E0,2.062499989E-3,1.649999991E-3,3.135000169E-2
2.041949581E0,-1.374999993E-4,2.612499986E-3,3.038750030E-2
2.044449968E0,9.624999948E-4,1.649999991E-3,2.818750031E-2
2.046950504E0,9.624999948E-4,1.649999991E-3,2.818750031E-2
2.049450891E0,3.162499983E-3,1.649999991E-3,2.818750031E-2
2.051951427E0,9.624999948E-4,2.612499986E-3,2.708750032E-2
2.054451814E0,9.624999948E-4,1.649999991E-3,2.612499893E-2
2.056952350E0,9.624999948E-4,1.649999991E-3,2.392499894E-2
2.059452737E0,2.062499989E-3,-5.499999970E-4,2.282499894E-2
2.061953055E0,2.062499989E-3,1.649999991E-3,2.282499894E-2
2.064453668E0,9.624999948E-4,1.649999991E-3,2.282499894E-2
2.066953978E0,9.624999948E-4,5.499999970E-4,2.186249942E-2
2.069454514E0,2.062499989E-3,1.649999991E-3,1.966249943E-2
2.071955130E0,9.624999948E-4,-5.499999970E-4,1.869999990E-2
2.074455429E0,-1.099999994E-3,5.499999970E-4,1.649999991E-2
2.076955814E0,-2.199999988E-3,1.649999991E-3,1.539999992E-2
2.079456350E0,9.624999948E-4,-5.499999970E-4,1.223750040E-2
2.081956737E0,9.624999948E-4,1.649999991E-3,1.223750040E-2
2.084457283E0,9.624999948E-4,5.499999970E-4,1.017499994E-2
2.086957670E0,9.624999948E-4,1.649999991E-3,9.074999951E-3
2.089458206E0,2.062499989E-3,1.649999991E-3,5.912499968E-3
2.091958593E0,9.624999948E-4,-5.499999970E-4,4.812499974E-3
2.094459130E0,-1.374999993E-4,5.499999970E-4,3.712499980E-3
2.096959521E0,9.624999948E-4,-1.649999991E-3,2.612499986E-3
2.099460058E0,9.624999948E-4,-5.499999970E-4,-5.499999970E-4
2.101960444E0,-1.099999994E-3,5.499999970E-4,-2.612499986E-3
2.104460981E0,2.062499989E-3,5.499999970E-4,-2.612499986E-3
2.106961371E0,-1.374999993E-4,5.499999970E-4,-3.712499980E-3
2.109461908E0,-1.374999993E-4,-5.499999970E-4,-4.812499974E-3
2.111962218E0,-1.374999993E-4,-5.499999970E-4,-5.774999969E-3
2.114462831E0,9.624999948E-4,5.499999970E-4,-4.812499974E-3
2.116963117E0,-1.374999993E-4,-5.499999970E-4,-5.774999969E-3
2.119463501E0,-1.374999993E-4,5.499999970E-4,-5.774999969E-3
2.121964038E0,9.624999948E-4,-5.499999970E-4,-4.812499974E-3
2.124464424E0,9.624999948E-4,5.499999970E-4,-2.612499986E-3
2.126964952E0,-1.374999993E-4,5.499999970E-4,-5.774999969E-3
2.129465338E0,-1.099999994E-3,1.649999991E-3,-4.812499974E-3
2.131965875E0,-1.374999993E-4,-5.499999970E-4,-4.812499974E-3
2.134466262E0,-1.374999993E-4,5.499999970E-4,-3.712499980E-3
2.136966798E0,9.624999948E-4,1.649999991E-3,-3.712499980E-3
2.139467210E0,-1.374999993E-4,5.499999970E-4,-2.612499986E-3
2.141967746E0,-1.374999993E-4,5.499999970E-4,-4.812499974E-3
2.144468056E0,2.062499989E-3,1.649999991E-3,-3.712499980E-3
2.146968669E0,9.624999948E-4,-5.499999970E-4,-5.499999970E-4
2.149468974E0,9.624999948E-4,1.649999991E-3,-2.612499986E-3
2.151969358E0,9.624999948E-4,5.499999970E-4,-5.499999970E-4
2.154469895E0,-1.099999994E-3,1.649999991E-3,-5.499999970E-4
2.156970282E0,-1.374999993E-4,5.499999970E-4,-5.499999970E-4
2.159470794E0,-1.374999993E-4,-1.649999991E-3,5.499999970E-4
2.161971181E0,-1.374999993E-4,-5.499999970E-4,5.499999970E-4
2.164471717E0,-1.374999993E-4,-5.499999970E-4,-5.499999970E-4
2.166972104E0,9.624999948E-4,5.499999970E-4,-2.612499986E-3
2.169472640E0,-1.099999994E-3,5.499999970E-4,-3.712499980E-3
2.171973041E0,-1.374999993E-4,5.499999970E-4,-3.712499980E-3
2.174473577E0,9.624999948E-4,5.499999970E-4,-3.712499980E-3
2.176973964E0,-1.374999993E-4,1.649999991E-3,-5.774999969E-3
2.179474500E0,-1.374999993E-4,-5.499999970E-4,-6.874999963E-3
2.181974887E0,9.624999948E-4,-5.499999970E-4,-7.974999957E-3
2.184475423E0,-1.374999993E-4,-5.499999970E-4,-1.223750040E-2
2.186975733E0,-1.374999993E-4,-5.499999970E-4,-1.223750040E-2
2.189476116E0,2.062499989E-3,5.499999970E-4,-1.649999991E-2
2.191976649E0,-1.099999994E-3,-5.499999970E-4,-1.539999992E-2
2.194477036E0,-1.374999993E-4,5.499999970E-4,-1.649999991E-2
2.196977572E0,-1.374999993E-4,-1.649999991E-3,-1.856249943E-2
2.199477959E0,-1.374999993E-4,-1.649999991E-3,-2.076249942E-2
2.201978495E0,-1.099999994E-3,5.499999970E-4,-1.966249943E-2
2.204478877E0,9.624999948E-4,-1.649999991E-3,-2.076249942E-2
2.206979414E0,-1.374999993E-4,-5.499999970E-4,-2.076249942E-2
2.209479800E0,9.624999948E-4,-5.499999970E-4,-2.076249942E-2
2.211980337E0,-1.374999993E-4,-5.499999970E-4,-2.282499894E-2
2.214480719E0,-1.374999993E-4,-5.499999970E-4,-2.282499894E-2
2.216981256E0,-1.374999993E-4,-5.499999970E-4,-2.186249942E-2
2.219481642E0,-1.099999994E-3,-5.499999970E-4,-2.282499894E-2
2.221982179E0,-1.374999993E-4,-5.499999970E-4,-2.186249942E-2
2.224482579E0,9.624999948E-4,-1.649999991E-3,-2.076249942E-2
2.226982887E0,9.624999948E-4,-5.499999970E-4,-2.186249942E-2
2.229483424E0,9.624999948E-4,-1.649999991E-3,-2.076249942E-2
2.231983810E0,-1.099999994E-3,5.499999970E-4,-2.076249942E-2
2.234484342E0,-1.099999994E-3,-5.499999970E-4,-1.759999990E-2
2.236984728E0,-1.099999994E-3,-1.649999991E-3,-1.649999991E-2
2.239485265E0,-1.374999993E-4,5.499999970E-4,-1.539999992E-2
2.241985651E0,9.624999948E-4,5.499999970E-4,-1.539999992E-2
2.244486188E0,-1.374999993E-4,5.499999970E-4,-1.113750041E-2
2.246986574E0,-1.099999994E-3,-5.499999970E-4,-7.974999957E-3
2.249487111E0,9.624999948E-4,5.499999970E-4,-5.774999969E-3
2.251987498E0,9.624999948E-4,-5.499999970E-4,-5.499999970E-4
2.254487795E0,9.624999948E-4,5.499999970E-4,5.499999970E-4
2.256988332E0,-1.374999993E-4,-5.499999970E-4,3.712499980E-3
2.259488718E0,9.624999948E-4,2.612499986E-3,7.974999957E-3
2.261989255E0,2.062499989E-3,1.649999991E-3,1.223750040E-2
2.264489641E0,9.624999948E-4,5.499999970E-4,1.539999992E-2
2.266990193E0,2.062499989E-3,5.499999970E-4,1.759999990E-2
2.269490580E0,9.624999948E-4,5.499999970E-4,2.282499894E-2
2.271991116E0,9.624999948E-4,5.499999970E-4,2.502499893E-2
2.274491503E0,2.062499989E-3,5.499999970E-4,2.708750032E-2
2.276992048E0,9.624999948E-4,2.612499986E-3,2.818750031E-2
2.279492435E0,2.062499989E-3,1.649999991E-3,3.135000169E-2
2.281992971E0,3.162499983E-3,1.649999991E-3,3.355000168E-2
2.284493358E0,2.062499989E-3,5.499999970E-4,3.561250120E-2
2.286993904E0,2.062499989E-3,1.649999991E-3,3.671250120E-2
2.289494291E0,9.624999948E-4,1.649999991E-3,3.671250120E-2
2.291994827E0,9.624999948E-4,1.649999991E-3,3.671250120E-2
2.294495214E0,9.624999948E-4,1.649999991E-3,3.987500072E-2
2.296995750E0,2.062499989E-3,5.499999970E-4,3.987500072E-2
2.299496060E0,9.624999948E-4,-5.499999970E-4,3.987500072E-2
2.301996674E0,9.624999948E-4,5.499999970E-4,4.207500070E-2
2.304497060E0,-1.374999993E-4,1.649999991E-3,4.317500070E-2
2.306997597E0,2.062499989E-3,1.649999991E-3,4.097500071E-2
2.309497896E0,9.624999948E-4,3.712499980E-3,3.891250119E-2
2.311998279E0,9.624999948E-4,5.499999970E-4,3.891250119E-2
2.314498817E0,2.062499989E-3,5.499999970E-4,3.671250120E-2
2.316999204E0,-1.374999993E-4,1.649999991E-3,3.355000168E-2
2.319499744E0,-1.374999993E-4,5.499999970E-4,3.244999796E-2
2.322000131E0,2.062499989E-3,5.499999970E-4,2.928750031E-2
2.324500668E0,9.624999948E-4,-5.499999970E-4,2.502499893E-2
2.327001054E0,9.624999948E-4,5.499999970E-4,2.186249942E-2
2.329501601E0,2.062499989E-3,5.499999970E-4,1.869999990E-2
2.332001987E0,-1.374999993E-4,1.649999991E-3,1.443750039E-2
2.334502524E0,9.624999948E-4,1.649999991E-3,9.074999951E-3
2.337002833E0,2.062499989E-3,-5.499999970E-4,9.074999951E-3
2.339503216E0,9.624999948E-4,-5.499999970E-4,3.712499980E-3
2.342003755E0,-1.374999993E-4,-5.499999970E-4,2.612499986E-3
2.344504141E0,9.624999948E-4,5.499999970E-4,-2.612499986E-3
2.347004678E0,-1.099999994E-3,-5.499999970E-4,-3.712499980E-3
2.349505064E0,-1.374999993E-4,5.499999970E-4,-4.812499974E-3
2.352005601E0,-1.374999993E-4,-5.499999970E-4,-7.974999957E-3
2.354505987E0,2.062499989E-3,-5.499999970E-4,-7.974999957E-3
2.357006524E0,-1.374999993E-4,5.499999970E-4,-1.113750041E-2
2.359506910E0,9.624999948E-4,-1.649999991E-3,-1.333750039E-2
2.362007476E0,2.062499989E-3,5.499999970E-4,-1.223750040E-2
2.364507863E0,9.624999948E-4,5.499999970E-4,-1.223750040E-2
2.367008170E0,-1.099999994E-3,5.499999970E-4,-1.429999992E-2
2.369508784E0,-1.099999994E-3,-1.649999991E-3,-1.539999992E-2
2.372009088E0,-1.374999993E-4,5.499999970E-4,-1.539999992E-2
2.374509625E0,-1.099999994E-3,5.499999970E-4,-1.539999992E-2
2.377010011E0,-1.374999993E-4,5.499999970E-4,-1.759999990E-2
2.379510548E0,9.624999948E-4,5.499999970E-4,-1.539999992E-2
2.382011182E0,-1.374999993E-4,-5.499999970E-4,-1.759999990E-2
2.384511492E0,-1.374999993E-4,5.499999970E-4,-1.539999992E-2
2.387011877E0,-1.374999993E-4,-5.499999970E-4,-1.539999992E-2
2.389512413E0,-1.374999993E-4,5.499999970E-4,-1.333750039E-2
2.392012800E0,-1.099999994E-3,-5.499999970E-4,-1.223750040E-2
2.394513321E0,-1.374999993E-4,5.499999970E-4,-1.223750040E-2
2.397013708E0,-1.374999993E-4,-5.499999970E-4,-9.074999951E-3
2.399514244E0,9.624999948E-4,-5.499999970E-4,-7.974999957E-3
2.402014631E0,-1.374999993E-4,5.499999970E-4,-5.774999969E-3
2.404515167E0,-1.374999993E-4,-5.499999970E-4,-5.774999969E-3
2.407015554E0,-1.374999993E-4,5.499999970E-4,-4.812499974E-3
2.409516090E0,9.624999948E-4,1.649999991E-3,-1.649999991E-3
2.412016477E0,-1.374999993E-4,5.499999970E-4,5.499999970E-4
2.414516785E0,9.624999948E-4,-5.499999970E-4,-5.499999970E-4
2.417017321E0,-1.374999993E-4,-5.499999970E-4,-5.499999970E-4
2.419517708E0,-1.099999994E-3,2.612499986E-3,5.499999970E-4
2.422018244E0,-1.374999993E-4,5.499999970E-4,5.499999970E-4
2.424518631E0,-1.374999993E-4,5.499999970E-4,-5.499999970E-4
2.427019163E0,-1.374999993E-4,5.499999970E-4,1.649999991E-3
2.429519550E0,9.624999948E-4,1.649999991E-3,5.499999970E-4
2.432020086E0,-1.374999993E-4,-5.499999970E-4,5.499999970E-4
2.434520473E0,-1.374999993E-4,5.499999970E-4,5.499999970E-4
2.437020981E0,9.624999948E-4,1.649999991E-3,-5.499999970E-4
2.439521367E0,-1.374999993E-4,-5.499999970E-4,5.499999970E-4
2.442021675E0,-1.099999994E-3,5.499999970E-4,-2.612499986E-3
2.444522211E0,-1.374999993E-4,-5.499999970E-4,5.499999970E-4
2.447022598E0,-1.374999993E-4,1.649999991E-3,-5.499999970E-4
2.449523148E0,9.624999948E-4,5.499999970E-4,-5.499999970E-4
2.452023535E0,-1.374999993E-4,-5.499999970E-4,-5.499999970E-4
2.454524072E0,-1.374999993E-4,-1.649999991E-3,-5.499999970E-4
2.457024458E0,9.624999948E-4,5.499999970E-4,-1.649999991E-3
2.459524995E0,-1.099999994E-3,-5.499999970E-4,-1.649999991E-3
2.462025381E0,-1.374999993E-4,-5.499999970E-4,-5.499999970E-4
2.464525918E0,-1.374999993E-4,-5.499999970E-4,-2.612499986E-3
2.467026304E0,-1.374999993E-4,1.649999991E-3,-3.712499980E-3
2.469526836E0,9.624999948E-4,5.499999970E-4,-4.812499974E-3
2.472027222E0,9.624999948E-4,-5.499999970E-4,-6.874999963E-3
2.474527759E0,-1.374999993E-4,5.499999970E-4,-6.874999963E-3
2.477028145E0,-1.374999993E-4,1.649999991E-3,-9.074999951E-3
2.479528677E0,9.624999948E-4,5.499999970E-4,-1.003750041E-2
2.482029064E0,9.624999948E-4,5.499999970E-4,-7.974999957E-3
2.484529600E0,-1.374999993E-4,-5.499999970E-4,-1.113750041E-2
2.487029987E0,-1.374999993E-4,-5.499999970E-4,-1.113750041E-2
2.489530523E0,9.624999948E-4,-5.499999970E-4,-1.333750039E-2
2.492030910E0,-1.374999993E-4,5.499999970E-4,-1.333750039E-2
2.494531217E0,-1.099999994E-3,-5.499999970E-4,-1.223750040E-2
2.497031754E0,9.624999948E-4,-5.499999970E-4,-1.223750040E-2
2.499532141E0,-1.374999993E-4,-5.499999970E-4,-1.223750040E-2
2.502032687E0,-1.374999993E-4,5.499999970E-4,-1.429999992E-2
2.504533074E0,9.624999948E-4,-5.499999970E-4,-1.333750039E-2
2.507033610E0,9.624999948E-4,5.499999970E-4,-1.429999992E-2
2.509533997E0,9.624999948E-4,5.499999970E-4,-1.429999992E-2
2.512034533E0,-1.374999993E-4,5.499999970E-4,-1.429999992E-2
2.514534920E0,9.624999948E-4,-5.499999970E-4,-1.113750041E-2
2.517035228E0,9.624999948E-4,-1.649999991E-3,-1.333750039E-2
2.519535764E0,-1.374999993E-4,1.649999991E-3,-1.333750039E-2
2.522036151E0,-1.374999993E-4,-5.499999970E-4,-1.223750040E-2
2.524536687E0,-1.374999993E-4,5.499999970E-4,-1.003750041E-2
2.527037074E0,-1.374999993E-4,5.499999970E-4,-9.074999951E-3
2.529537610E0,9.624999948E-4,5.499999970E-4,-7.974999957E-3
2.532037978E0,-1.099999994E-3,5.499999970E-4,-7.974999957E-3
2.534538514E0,-1.374999993E-4,-5.499999970E-4,-6.874999963E-3
2.537038901E0,9.624999948E-4,5.499999970E-4,-5.774999969E-3
2.539539437E0,-1.374999993E-4,-1.649999991E-3,-3.712499980E-3
2.542039824E0,9.624999948E-4,-5.499999970E-4,-3.712499980E-3
2.544540364E0,-1.374999993E-4,5.499999970E-4,-2.612499986E-3
2.547040751E0,-1.374999993E-4,1.649999991E-3,-5.499999970E-4
2.549541288E0,-1.374999993E-4,5.499999970E-4,5.499999970E-4
2.552041674E0,-1.374999993E-4,-5.499999970E-4,2.612499986E-3
2.554542211E0,9.624999948E-4,-1.649999991E-3,2.612499986E-3
2.557042597E0,-1.099999994E-3,-5.499999970E-4,3.712499980E-3
2.559543134E0,-1.374999993E-4,-5.499999970E-4,4.812499974E-3
2.562043443E0,-1.374999993E-4,-5.499999970E-4,5.912499968E-3
2.564544057E0,-1.374999993E-4,1.649999991E-3,5.912499968E-3
2.567044381E0,-1.374999993E-4,5.499999970E-4,5.912499968E-3
2.569544766E0,-1.374999993E-4,1.649999991E-3,6.874999963E-3
2.572045303E0,-1.099999994E-3,-5.499999970E-4,7.974999957E-3
2.574545689E0,-1.099999994E-3,5.499999970E-4,6.874999963E-3
2.577046231E0,9.624999948E-4,5.499999970E-4,7.974999957E-3
2.579546617E0,-1.374999993E-4,-5.499999970E-4,1.113750041E-2
2.582047154E0,2.062499989E-3,1.649999991E-3,1.223750040E-2
2.584547540E0,2.062499989E-3,5.499999970E-4,1.113750041E-2
2.587048077E0,-1.099999994E-3,1.649999991E-3,1.113750041E-2
2.589548458E0,9.624999948E-4,-5.499999970E-4,1.333750039E-2
2.592048995E0,-1.374999993E-4,5.499999970E-4,1.333750039E-2
2.594549305E0,-1.374999993E-4,-5.499999970E-4,1.443750039E-2
2.597049687E0,-1.374999993E-4,-5.499999970E-4,1.443750039E-2
2.599550245E0,-1.099999994E-3,5.499999970E-4,1.539999992E-2
2.602050631E0,2.062499989E-3,-5.499999970E-4,1.759999990E-2
2.604551168E0,-1.099999994E-3,2.612499986E-3,1.649999991E-2
2.607051554E0,2.062499989E-3,5.499999970E-4,1.869999990E-2
2.609552125E0,3.162499983E-3,5.499999970E-4,1.759999990E-2
2.612052512E0,9.624999948E-4,2.612499986E-3,1.869999990E-2
2.614553048E0,9.624999948E-4,5.499999970E-4,1.869999990E-2
2.617053435E0,3.162499983E-3,5.499999970E-4,2.076249942E-2
2.619553971E0,9.624999948E-4,5.499999970E-4,1.966249943E-2
2.622054362E0,-1.374999993E-4,5.499999970E-4,1.966249943E-2
2.624554898E0,2.062499989E-3,1.649999991E-3,2.186249942E-2
2.627055285E0,9.624999948E-4,5.499999970E-4,1.966249943E-2
2.629555592E0,9.624999948E-4,-5.499999970E-4,2.076249942E-2
2.632056197E0,-1.374999993E-4,5.499999970E-4,2.392499894E-2
2.634556507E0,3.162499983E-3,1.649999991E-3,2.392499894E-2
2.637057120E0,-1.374999993E-4,5.499999970E-4,2.186249942E-2
2.639557430E0,-1.374999993E-4,-5.499999970E-4,2.282499894E-2
2.642058048E0,9.624999948E-4,5.499999970E-4,2.282499894E-2
2.644558358E0,2.062499989E-3,5.499999970E-4,2.282499894E-2
2.647058894E0,9.624999948E-4,-5.499999970E-4,2.282499894E-2
2.649559281E0,9.624999948E-4,5.499999970E-4,2.186249942E-2
2.652059817E0,-1.374999993E-4,5.499999970E-4,2.282499894E-2
2.654560233E0,9.624999948E-4,1.649999991E-3,2.282499894E-2
2.657060769E0,-1.374999993E-4,5.499999970E-4,1.966249943E-2
2.659561156E0,2.062499989E-3,5.499999970E-4,2.186249942E-2
2.662061692E0,9.624999948E-4,-5.499999970E-4,1.966249943E-2
2.664562103E0,2.062499989E-3,1.649999991E-3,1.869999990E-2
2.667062640E0,9.624999948E-4,5.499999970E-4,1.966249943E-2
2.669563026E0,-1.099999994E-3,1.649999991E-3,1.869999990E-2
2.672063334E0,2.062499989E-3,1.649999991E-3,1.759999990E-2
2.674563870E0,-1.374999993E-4,5.499999970E-4,1.759999990E-2
2.677064262E0,-1.374999993E-4,5.499999970E-4,1.539999992E-2
2.679564798E0,-1.374999993E-4,1.649999991E-3,1.333750039E-2
2.682065185E0,9.624999948E-4,5.499999970E-4,1.333750039E-2
2.684565722E0,-1.374999993E-4,1.649999991E-3,1.017499994E-2
2.687066113E0,-1.374999993E-4,1.649999991E-3,7.974999957E-3
2.689566650E0,-1.374999993E-4,-5.499999970E-4,7.974999957E-3
2.692067036E0,2.062499989E-3,5.499999970E-4,5.912499968E-3
2.694567573E0,-1.374999993E-4,5.499999970E-4,4.812499974E-3
2.697067882E0,-1.374999993E-4,-1.649999991E-3,3.712499980E-3
2.699568481E0,-1.374999993E-4,5.499999970E-4,1.649999991E-3
2.702068790E0,2.062499989E-3,-5.499999970E-4,5.499999970E-4
2.704569404E0,9.624999948E-4,-5.499999970E-4,-2.612499986E-3
2.707069714E0,-1.374999993E-4,-1.649999991E-3,-3.712499980E-3
2.709570332E0,-1.374999993E-4,-5.499999970E-4,-4.812499974E-3
2.712070642E0,-1.374999993E-4,5.499999970E-4,-4.812499974E-3
2.714571255E0,-1.374999993E-4,-5.499999970E-4,-7.974999957E-3
2.717071565E0,-1.099999994E-3,-5.499999970E-4,-7.974999957E-3
2.719571949E0,9.624999948E-4,1.649999991E-3,-7.974999957E-3
2.722072472E0,-1.374999993E-4,-5.499999970E-4,-9.074999951E-3
2.724572858E0,9.624999948E-4,-1.649999991E-3,-1.003750041E-2
2.727073395E0,-1.374999993E-4,-5.499999970E-4,-7.974999957E-3
2.729573782E0,9.624999948E-4,-5.499999970E-4,-1.223750040E-2
2.732074303E0,-1.099999994E-3,5.499999970E-4,-1.333750039E-2
2.734574690E0,-1.374999993E-4,5.499999970E-4,-1.333750039E-2
2.737075226E0,-1.374999993E-4,5.499999970E-4,-1.539999992E-2
2.739575536E0,-1.374999993E-4,5.499999970E-4,-1.429999992E-2
2.742076140E0,-1.374999993E-4,-5.499999970E-4,-1.429999992E-2
2.744576450E0,-1.374999993E-4,5.499999970E-4,-1.429999992E-2
2.747076835E0,9.624999948E-4,-1.649999991E-3,-1.539999992E-2
2.749577371E0,9.624999948E-4,-5.499999970E-4,-1.333750039E-2
2.752077739E0,-1.374999993E-4,-5.499999970E-4,-1.333750039E-2
2.754578275E0,-1.374999993E-4,-5.499999970E-4,-1.333750039E-2
2.757078662E0,-1.374999993E-4,5.499999970E-4,-1.429999992E-2
2.759579198E0,-1.374999993E-4,-5.499999970E-4,-1.113750041E-2
2.762079585E0,9.624999948E-4,-1.649999991E-3,-9.074999951E-3
2.764580120E0,9.624999948E-4,5.499999970E-4,-9.074999951E-3
2.767080507E0,2.062499989E-3,-5.499999970E-4,-9.074999951E-3
2.769581043E0,-1.374999993E-4,5.499999970E-4,-7.974999957E-3
2.772081430E0,-1.374999993E-4,5.499999970E-4,-4.812499974E-3
2.774581734E0,-1.374999993E-4,5.499999970E-4,-5.774999969E-3
2.777082347E0,9.624999948E-4,5.499999970E-4,-4.812499974E-3
2.779582657E0,-1.374999993E-4,-5.499999970E-4,-2.612499986E-3
2.782083193E0,-1.374999993E-4,1.649999991E-3,-1.649999991E-3
2.784583560E0,9.624999948E-4,5.499999970E-4,-5.499999970E-4
2.787084096E0,9.624999948E-4,-5.499999970E-4,-1.649999991E-3
2.789584483E0,9.624999948E-4,-1.649999991E-3,-1.649999991E-3
2.792085019E0,-1.374999993E-4,5.499999970E-4,5.499999970E-4
2.794585402E0,-1.374999993E-4,5.499999970E-4,-1.649999991E-3
2.797085938E0,-1.374999993E-4,5.499999970E-4,5.499999970E-4
2.799586325E0,-1.374999993E-4,-5.499999970E-4,5.499999970E-4
2.802086633E0,2.062499989E-3,-5.499999970E-4,-5.499999970E-4
2.804587246E0,9.624999948E-4,1.649999991E-3,-5.499999970E-4
2.807087556E0,9.624999948E-4,1.649999991E-3,-5.499999970E-4
2.809588169E0,-1.374999993E-4,5.499999970E-4,-2.612499986E-3
2.812088479E0,-1.374999993E-4,5.499999970E-4,-2.612499986E-3
2.814589096E0,-1.374999993E-4,-5.499999970E-4,-2.612499986E-3
2.817089406E0,-1.374999993E-4,5.499999970E-4,-4.812499974E-3
2.819590019E0,2.062499989E-3,-5.499999970E-4,-5.774999969E-3
2.822090329E0,9.624999948E-4,5.499999970E-4,-6.874999963E-3
2.824590837E0,9.624999948E-4,5.499999970E-4,-7.974999957E-3
2.827091223E0,-1.374999993E-4,5.499999970E-4,-9.074999951E-3
2.829591760E0,-1.374999993E-4,-5.499999970E-4,-7.974999957E-3
2.832092146E0,-1.374999993E-4,5.499999970E-4,-1.113750041E-2
2.834592658E0,-1.374999993E-4,-5.499999970E-4,-1.003750041E-2
2.837093044E0,9.624999948E-4,1.649999991E-3,-1.223750040E-2
2.839593581E0,9.624999948E-4,5.499999970E-4,-1.333750039E-2
2.842093968E0,-1.099999994E-3,-5.499999970E-4,-1.539999992E-2
2.844594504E0,-1.374999993E-4,-5.499999970E-4,-1.649999991E-2
2.847094891E0,-1.099999994E-3,1.649999991E-3,-1.539999992E-2
2.849595427E0,-1.374999993E-4,-5.499999970E-4,-1.649999991E-2
2.852095814E0,-1.374999993E-4,1.649999991E-3,-1.856249943E-2
2.854596107E0,-1.374999993E-4,-1.649999991E-3,-1.966249943E-2
2.857096644E0,-1.374999993E-4,-5.499999970E-4,-1.966249943E-2
2.859597030E0,-1.374999993E-4,-1.649999991E-3,-2.076249942E-2
2.862097567E0,-1.099999994E-3,-1.649999991E-3,-2.186249942E-2
2.864597954E0,9.624999948E-4,-5.499999970E-4,-2.076249942E-2
2.867098500E0,-1.374999993E-4,-5.499999970E-4,-2.282499894E-2
2.869598887E0,-1.374999993E-4,5.499999970E-4,-2.186249942E-2
2.872099423E0,9.624999948E-4,-1.649999991E-3,-2.392499894E-2
2.874599810E0,-1.374999993E-4,-1.649999991E-3,-2.612499893E-2
2.877100346E0,-1.374999993E-4,-5.499999970E-4,-2.612499893E-2
2.879600656E0,9.624999948E-4,-5.499999970E-4,-2.612499893E-2
2.882101269E0,-1.374999993E-4,-5.499999970E-4,-2.612499893E-2
2.884601579E0,-1.099999994E-3,-1.649999991E-3,-2.612499893E-2
2.887102216E0,-1.374999993E-4,5.499999970E-4,-2.612499893E-2
2.889602526E0,-1.374999993E-4,-5.499999970E-4,-2.708750032E-2
2.892102911E0,-1.099999994E-3,1.649999991E-3,-2.612499893E-2
2.894603447E0,-1.374999993E-4,-1.649999991E-3,-2.612499893E-2
2.897103853E0,-1.374999993E-4,-1.649999991E-3,-2.502499893E-2
2.899604389E0,-2.199999988E-3,-5.499999970E-4,-2.392499894E-2
2.902104776E0,-1.374999993E-4,5.499999970E-4,-2.502499893E-2
2.904605312E0,-1.374999993E-4,5.499999970E-4,-2.282499894E-2
2.907105679E0,-1.374999993E-4,5.499999970E-4,-2.282499894E-2
2.909606215E0,-1.374999993E-4,-5.499999970E-4,-1.966249943E-2
2.912106602E0,-1.099999994E-3,-1.649999991E-3,-2.076249942E-2
2.914607139E0,-1.374999993E-4,5.499999970E-4,-1.856249943E-2
2.917107525E0,-1.374999993E-4,-5.499999970E-4,-1.649999991E-2
2.919608058E0,9.624999948E-4,-1.649999991E-3,-1.429999992E-2
2.922108444E0,-1.374999993E-4,-5.499999970E-4,-1.223750040E-2
2.924608981E0,-1.374999993E-4,-5.499999970E-4,-1.223750040E-2
2.927109367E0,-1.374999993E-4,-5.499999970E-4,-9.074999951E-3
2.929609694E0,9.624999948E-4,5.499999970E-4,-6.874999963E-3
2.932110230E0,-1.374999993E-4,1.649999991E-3,-3.712499980E-3
2.934610617E0,-1.374999993E-4,-5.499999970E-4,-2.612499986E-3
2.937111154E0,-1.099999994E-3,1.649999991E-3,-5.499999970E-4
2.939611540E0,-1.374999993E-4,5.499999970E-4,-1.649999991E-3
2.942112067E0,9.624999948E-4,5.499999970E-4,1.649999991E-3
2.944612453E0,9.624999948E-4,1.649999991E-3,1.649999991E-3
2.947112990E0,-1.374999993E-4,5.499999970E-4,3.712499980E-3
2.949613376E0,-1.374999993E-4,5.499999970E-4,2.612499986E-3
2.952113918E0,-1.374999993E-4,1.649999991E-3,6.874999963E-3
2.954614304E0,-1.099999994E-3,5.499999970E-4,6.874999963E-3
2.957114612E0,9.624999948E-4,-5.499999970E-4,5.912499968E-3
2.959615149E0,9.624999948E-4,5.499999970E-4,9.074999951E-3
2.962115511E0,-1.374999993E-4,5.499999970E-4,7.974999957E-3
2.964616048E0,-1.374999993E-4,5.499999970E-4,9.074999951E-3
2.967116434E0,-1.374999993E-4,-5.499999970E-4,1.223750040E-2
2.969616971E0,9.624999948E-4,5.499999970E-4,1.017499994E-2
2.972117367E0,-1.374999993E-4,1.649999991E-3,1.223750040E-2
2.974617904E0,9.624999948E-4,-5.499999970E-4,1.223750040E-2
2.977118291E0,2.062499989E-3,1.649999991E-3,1.443750039E-2
2.979618827E0,9.624999948E-4,2.612499986E-3,1.333750039E-2
2.982119194E0,-1.374999993E-4,5.499999970E-4,1.333750039E-2
2.984619730E0,9.624999948E-4,5.499999970E-4,1.539999992E-2
2.987120117E0,-1.374999993E-4,1.649999991E-3,1.443750039E-2
2.989620653E0,-1.374999993E-4,-5.499999970E-4,1.539999992E-2
2.992121045E0,-1.099999994E-3,5.499999970E-4,1.223750040E-2
2.994621581E0,-1.374999993E-4,5.499999970E-4,1.113750041E-2
2.997121968E0,-1.374999993E-4,5.499999970E-4,1.223750040E-2
2.999622504E0,2.062499989E-3,-5.499999970E-4,1.113750041E-2
3.002122891E0,9.624999948E-4,1.649999991E-3,1.113750041E-2
3.004623427E0,9.624999948E-4,1.649999991E-3,1.017499994E-2
3.007123737E0,-1.099999994E-3,1.649999991E-3,1.113750041E-2
3.009624120E0,-1.374999993E-4,-5.499999970E-4,9.074999951E-3
3.012124644E0,9.624999948E-4,-5.499999970E-4,9.074999951E-3
3.014625031E0,9.624999948E-4,1.649999991E-3,1.017499994E-2
3.017125567E0,-1.374999993E-4,5.499999970E-4,7.974999957E-3
3.019625954E0,9.624999948E-4,1.649999991E-3,7.974999957E-3
3.022126490E0,-1.374999993E-4,5.499999970E-4,9.074999951E-3
3.024626872E0,-1.099999994E-3,5.499999970E-4,7.974999957E-3
3.027127408E0,-1.374999993E-4,-5.499999970E-4,6.874999963E-3
3.029627718E0,-1.374999993E-4,-1.649999991E-3,5.912499968E-3
3.032128101E0,9.624999948E-4,1.649999991E-3,7.974999957E-3
3.034628639E0,-1.374999993E-4,5.499999970E-4,6.874999963E-3
3.037129026E0,-1.374999993E-4,5.499999970E-4,7.974999957E-3
3.039629562E0,2.062499989E-3,5.499999970E-4,7.974999957E-3
3.042129949E0,9.624999948E-4,5.499999970E-4,6.874999963E-3
3.044630480E0,2.062499989E-3,5.499999970E-4,5.912499968E-3
3.047130867E0,9.624999948E-4,5.499999970E-4,6.874999963E-3
3.049631404E0,-1.374999993E-4,5.499999970E-4,6.874999963E-3
3.052131790E0,9.624999948E-4,-5.499999970E-4,5.912499968E-3
3.054632327E0,-1.374999993E-4,5.499999970E-4,5.912499968E-3
3.057132703E0,-1.099999994E-3,-5.499999970E-4,7.974999957E-3
3.059633240E0,-1.374999993E-4,-5.499999970E-4,6.874999963E-3
3.062133626E0,-1.099999994E-3,-1.649999991E-3,5.912499968E-3
3.064634163E0,9.624999948E-4,5.499999970E-4,5.912499968E-3
3.067134460E0,9.624999948E-4,5.499999970E-4,7.974999957E-3
3.069635073E0,-1.374999993E-4,5.499999970E-4,6.874999963E-3
3.072135460E0,9.624999948E-4,5.499999970E-4,4.812499974E-3
3.074635996E0,2.062499989E-3,-5.499999970E-4,6.874999963E-3
3.077136383E0,-1.374999993E-4,5.499999970E-4,7.974999957E-3
3.079636932E0,9.624999948E-4,5.499999970E-4,6.874999963E-3
3.082137242E0,-1.099999994E-3,-1.649999991E-3,6.874999963E-3
3.084637624E0,9.624999948E-4,-5.499999970E-4,5.912499968E-3
3.087138163E0,9.624999948E-4,1.649999991E-3,3.712499980E-3
3.089638559E0,2.062499989E-3,5.499999970E-4,5.912499968E-3
3.092139096E0,-1.374999993E-4,5.499999970E-4,4.812499974E-3
3.094639483E0,-1.099999994E-3,1.649999991E-3,4.812499974E-3
3.097140019E0,-1.374999993E-4,5.499999970E-4,2.612499986E-3
3.099640391E0,-1.374999993E-4,-5.499999970E-4,5.499999970E-4
3.102140927E0,9.624999948E-4,5.499999970E-4,-5.499999970E-4
3.104641314E0,9.624999948E-4,5.499999970E-4,5.499999970E-4
3.107141621E0,9.624999948E-4,-5.499999970E-4,-5.499999970E-4
3.109642158E0,-1.374999993E-4,5.499999970E-4,-2.612499986E-3
3.112142565E0,-1.374999993E-4,5.499999970E-4,-3.712499980E-3
3.114643101E0,-1.374999993E-4,5.499999970E-4,-3.712499980E-3
3.117143488E0,-1.099999994E-3,5.499999970E-4,-5.774999969E-3
3.119644024E0,9.624999948E-4,-1.649999991E-3,-6.874999963E-3
3.122144411E0,-1.374999993E-4,-5.499999970E-4,-9.074999951E-3
3.124644947E0,9.624999948E-4,-5.499999970E-4,-7.974999957E-3
3.127145334E0,-1.374999993E-4,5.499999970E-4,-7.974999957E-3
3.129645870E0,-1.374999993E-4,1.649999991E-3,-1.003750041E-2
3.132146252E0,-1.374999993E-4,5.499999970E-4,-1.003750041E-2
3.134646560E0,-1.374999993E-4,-5.499999970E-4,-1.113750041E-2
3.137147173E0,-1.374999993E-4,-5.499999970E-4,-1.113750041E-2
3.139647483E0,-1.374999993E-4,-5.499999970E-4,-1.223750040E-2
3.142148096E0,-1.099999994E-3,-5.499999970E-4,-1.333750039E-2
3.144648640E0,-1.374999993E-4,5.499999970E-4,-1.333750039E-2
3.147149026E0,-1.374999993E-4,-1.649999991E-3,-1.333750039E-2
3.149649563E0,-1.374999993E-4,1.649999991E-3,-1.333750039E-2
3.152149949E0,9.624999948E-4,-5.499999970E-4,-1.539999992E-2
3.154650271E0,-1.374999993E-4,5.499999970E-4,-1.333750039E-2
3.157150807E0,-1.374999993E-4,-5.499999970E-4,-1.223750040E-2
3.159651194E0,-1.374999993E-4,-1.649999991E-3,-1.223750040E-2
3.162151731E0,-1.374999993E-4,-5.499999970E-4,-1.333750039E-2
3.164652142E0,-1.374999993E-4,5.499999970E-4,-1.113750041E-2
3.167152679E0,-1.374999993E-4,5.499999970E-4,-1.003750041E-2
3.169653065E0,-1.374999993E-4,5.499999970E-4,-9.074999951E-3
3.172153602E0,9.624999948E-4,1.649999991E-3,-5.774999969E-3
3.174653988E0,-1.099999994E-3,-5.499999970E-4,-5.774999969E-3
3.177154525E0,-1.374999993E-4,-5.499999970E-4,-2.612499986E-3
3.179654911E0,9.624999948E-4,-5.499999970E-4,-3.712499980E-3
3.182155219E0,9.624999948E-4,1.649999991E-3,5.499999970E-4
3.184655746E0,-1.374999993E-4,-5.499999970E-4,1.649999991E-3
3.187156132E0,9.624999948E-4,5.499999970E-4,1.649999991E-3
3.189656669E0,-1.099999994E-3,2.612499986E-3,4.812499974E-3
3.192157055E0,-1.374999993E-4,-1.649999991E-3,4.812499974E-3
3.194657592E0,-1.374999993E-4,5.499999970E-4,6.874999963E-3
3.197157978E0,-1.099999994E-3,-1.649999991E-3,7.974999957E-3
3.199658515E0,-1.099999994E-3,1.649999991E-3,6.874999963E-3
3.202158901E0,9.624999948E-4,5.499999970E-4,6.874999963E-3
3.204659419E0,2.062499989E-3,5.499999970E-4,9.074999951E-3
3.207159729E0,9.624999948E-4,5.499999970E-4,1.017499994E-2
3.209660342E0,-1.374999993E-4,5.499999970E-4,1.017499994E-2
3.212160652E0,-1.374999993E-4,5.499999970E-4,1.113750041E-2
3.214661270E0,-1.374999993E-4,-5.499999970E-4,1.113750041E-2
3.217161580E0,-1.374999993E-4,5.499999970E-4,1.223750040E-2
3.219662193E0,-1.374999993E-4,5.499999970E-4,1.223750040E-2
3.222162503E0,9.624999948E-4,5.499999970E-4,1.223750040E-2
3.224662887E0,-1.099999994E-3,-5.499999970E-4,1.223750040E-2
3.227163419E0,9.624999948E-4,-5.499999970E-4,1.113750041E-2
3.229663806E0,-1.374999993E-4,1.649999991E-3,1.113750041E-2
3.232164342E0,-1.374999993E-4,5.499999970E-4,1.017499994E-2
3.234664729E0,-1.374999993E-4,5.499999970E-4,7.974999957E-3
3.237165279E0,-1.374999993E-4,-5.499999970E-4,5.912499968E-3
3.239665666E0,-1.099999994E-3,-5.499999970E-4,7.974999957E-3
3.242166202E0,-1.374999993E-4,5.499999970E-4,3.712499980E-3
3.244666589E0,9.624999948E-4,5.499999970E-4,3.712499980E-3
3.247167135E0,-1.374999993E-4,5.499999970E-4,5.499999970E-4
3.249667522E0,-1.374999993E-4,-5.499999970E-4,-5.499999970E-4
3.252168058E0,9.624999948E-4,5.499999970E-4,-5.499999970E-4
3.254668368E0,-1.374999993E-4,5.499999970E-4,-3.712499980E-3
3.257168756E0,-1.374999993E-4,5.499999970E-4,-7.974999957E-3
3.259669294E0,-1.374999993E-4,1.649999991E-3,-7.974999957E-3
3.262169681E0,-1.099999994E-3,1.649999991E-3,-1.113750041E-2
3.264670217E0,-1.099999994E-3,-5.499999970E-4,-1.003750041E-2
3.267170604E0,-1.374999993E-4,-5.499999970E-4,-1.113750041E-2
3.269671144E0,-1.099999994E-3,-5.499999970E-4,-1.223750040E-2
3.272171531E0,9.624999948E-4,-5.499999970E-4,-1.429999992E-2
3.274672067E0,9.624999948E-4,-5.499999970E-4,-1.333750039E-2
3.277172454E0,-1.099999994E-3,-5.499999970E-4,-1.333750039E-2
3.279672977E0,9.624999948E-4,1.649999991E-3,-1.333750039E-2
3.282173363E0,9.624999948E-4,-5.499999970E-4,-1.223750040E-2
3.284673671E0,9.624999948E-4,5.499999970E-4,-1.333750039E-2
3.287174207E0,9.624999948E-4,5.499999970E-4,-1.333750039E-2
3.289674594E0,-1.374999993E-4,-1.649999991E-3,-1.333750039E-2
3.292175125E0,9.624999948E-4,5.499999970E-4,-1.333750039E-2
3.294675512E0,-1.099999994E-3,5.499999970E-4,-1.113750041E-2
3.297176049E0,-1.099999994E-3,5.499999970E-4,-1.113750041E-2
3.299676435E0,-1.374999993E-4,-1.649999991E-3,-1.113750041E-2
3.302176972E0,-1.099999994E-3,-5.499999970E-4,-9.074999951E-3
3.304677358E0,-1.374999993E-4,-1.649999991E-3,-1.003750041E-2
3.307177895E0,-1.099999994E-3,5.499999970E-4,-7.974999957E-3
3.309678281E0,-1.099999994E-3,1.649999991E-3,-6.874999963E-3
3.312178818E0,-1.374999993E-4,-5.499999970E-4,-4.812499974E-3
3.314679214E0,-1.374999993E-4,-5.499999970E-4,-3.712499980E-3
3.317179751E0,9.624999948E-4,5.499999970E-4,-1.649999991E-3
3.319680137E0,-1.374999993E-4,-5.499999970E-4,5.499999970E-4
3.322180674E0,-1.374999993E-4,-5.499999970E-4,1.649999991E-3
3.324681061E0,9.624999948E-4,1.649999991E-3,4.812499974E-3
3.327181597E0,9.624999948E-4,5.499999970E-4,4.812499974E-3
3.329681984E0,2.062499989E-3,5.499999970E-4,6.874999963E-3
3.332182291E0,9.624999948E-4,-5.499999970E-4,6.874999963E-3
3.334682828E0,-1.374999993E-4,5.499999970E-4,7.974999957E-3
3.337183204E0,-1.374999993E-4,5.499999970E-4,6.874999963E-3
3.339683741E0,-1.374999993E-4,-5.499999970E-4,1.017499994E-2
3.342184128E0,9.624999948E-4,5.499999970E-4,1.113750041E-2
3.344684664E0,9.624999948E-4,-5.499999970E-4,1.017499994E-2
3.347185051E0,9.624999948E-4,1.649999991E-3,9.074999951E-3
3.349685592E0,9.624999948E-4,-5.499999970E-4,9.074999951E-3
3.352185979E0,9.624999948E-4,5.499999970E-4,9.074999951E-3
3.354686515E0,9.624999948E-4,5.499999970E-4,1.017499994E-2
3.357186825E0,9.624999948E-4,5.499999970E-4,9.074999951E-3
3.359687232E0,9.624999948E-4,5.499999970E-4,9.074999951E-3
3.362187770E0,2.062499989E-3,5.499999970E-4,5.912499968E-3
3.364688157E0,-1.374999993E-4,5.499999970E-4,6.874999963E-3
3.367188693E0,-1.374999993E-4,5.499999970E-4,4.812499974E-3
3.369689109E0,-1.099999994E-3,5.499999970E-4,5.912499968E-3
3.372189645E0,9.624999948E-4,5.499999970E-4,4.812499974E-3
3.374690032E0,-1.374999993E-4,5.499999970E-4,3.712499980E-3
3.377190568E0,9.624999948E-4,5.499999970E-4,3.712499980E-3
3.379690969E0,-1.374999993E-4,5.499999970E-4,1.649999991E-3
3.382191505E0,-1.374999993E-4,-5.499999970E-4,1.649999991E-3
3.384691892E0,9.624999948E-4,-5.499999970E-4,1.649999991E-3
3.387192428E0,-1.374999993E-4,-5.499999970E-4,-1.649999991E-3
3.389692815E0,9.624999948E-4,5.499999970E-4,-5.499999970E-4
3.392193352E0,9.624999948E-4,-5.499999970E-4,-3.712499980E-3
3.394693738E0,-1.374999993E-4,-5.499999970E-4,-4.812499974E-3
3.397194046E0,-1.374999993E-4,5.499999970E-4,-3.712499980E-3
3.399694659E0,-1.374999993E-4,-5.499999970E-4,-5.774999969E-3
3.402194988E0,-1.374999993E-4,-1.649999991E-3,-6.874999963E-3
3.404695524E0,-1.374999993E-4,-5.499999970E-4,-7.974999957E-3
3.407195911E0,-1.374999993E-4,5.499999970E-4,-1.003750041E-2
3.409696447E0,2.062499989E-3,5.499999970E-4,-1.003750041E-2
3.412196829E0,-1.099999994E-3,-1.649999991E-3,-1.113750041E-2
3.414697366E0,-1.099999994E-3,-5.499999970E-4,-7.974999957E-3
3.417197752E0,-1.374999993E-4,-5.499999970E-4,-9.074999951E-3
3.419698289E0,9.624999948E-4,5.499999970E-4,-1.003750041E-2
3.422198651E0,-1.099999994E-3,-5.499999970E-4,-1.003750041E-2
3.424699188E0,9.624999948E-4,-5.499999970E-4,-1.003750041E-2
3.427199574E0,-1.099999994E-3,5.499999970E-4,-1.003750041E-2
3.429699882E0,-1.099999994E-3,5.499999970E-4,-1.003750041E-2
3.432200419E0,-1.374999993E-4,-5.499999970E-4,-7.974999957E-3
3.434700810E0,-1.099999994E-3,-5.499999970E-4,-1.003750041E-2
3.437201347E0,9.624999948E-4,5.499999970E-4,-7.974999957E-3
3.439701733E0,-1.374999993E-4,-5.499999970E-4,-6.874999963E-3
3.442202270E0,-1.374999993E-4,5.499999970E-4,-6.874999963E-3
3.444702675E0,9.624999948E-4,-5.499999970E-4,-7.974999957E-3
3.447203212E0,-1.374999993E-4,5.499999970E-4,-3.712499980E-3
3.449703598E0,-1.099999994E-3,-5.499999970E-4,-5.774999969E-3
3.452204135E0,-1.374999993E-4,5.499999970E-4,-4.812499974E-3
3.454704513E0,-1.374999993E-4,-5.499999970E-4,-3.712499980E-3
3.457205049E0,-1.374999993E-4,-5.499999970E-4,-2.612499986E-3
3.459705436E0,-1.374999993E-4,2.612499986E-3,-5.499999970E-4
3.462205972E0,2.062499989E-3,1.649999991E-3,5.499999970E-4
3.464706286E0,-1.099999994E-3,5.499999970E-4,1.649999991E-3
3.467206899E0,-1.374999993E-4,-1.649999991E-3,3.712499980E-3
3.469707209E0,9.624999948E-4,5.499999970E-4,4.812499974E-3
3.472207822E0,9.624999948E-4,1.649999991E-3,5.912499968E-3
3.474708142E0,-1.374999993E-4,-5.499999970E-4,5.912499968E-3
3.477208755E0,9.624999948E-4,5.499999970E-4,6.874999963E-3
3.479709065E0,-1.374999993E-4,-1.649999991E-3,9.074999951E-3
3.482209450E0,9.624999948E-4,1.649999991E-3,1.017499994E-2
3.484709957E0,9.624999948E-4,1.649999991E-3,1.333750039E-2
3.487210344E0,9.624999948E-4,5.499999970E-4,1.017499994E-2
3.489710880E0,-1.374999993E-4,5.499999970E-4,1.017499994E-2
3.492211267E0,2.062499989E-3,1.649999991E-3,1.223750040E-2
3.494711789E0,9.624999948E-4,5.499999970E-4,1.017499994E-2
3.497212176E0,-1.374999993E-4,5.499999970E-4,1.333750039E-2
3.499712712E0,-1.374999993E-4,1.649999991E-3,1.113750041E-2
3.502213022E0,9.624999948E-4,5.499999970E-4,9.074999951E-3
3.504713389E0,9.624999948E-4,5.499999970E-4,1.113750041E-2
3.507213927E0,9.624999948E-4,5.499999970E-4,9.074999951E-3
3.509714314E0,9.624999948E-4,5.499999970E-4,9.074999951E-3
3.512214850E0,-1.374999993E-4,1.649999991E-3,9.074999951E-3
3.514715237E0,9.624999948E-4,5.499999970E-4,6.874999963E-3
3.517215797E0,9.624999948E-4,-1.649999991E-3,6.874999963E-3
3.519716184E0,2.062499989E-3,5.499999970E-4,4.812499974E-3
3.522216720E0,-1.374999993E-4,5.499999970E-4,4.812499974E-3
3.524717107E0,-1.374999993E-4,2.612499986E-3,3.712499980E-3
3.527217391E0,9.624999948E-4,5.499999970E-4,3.712499980E-3
3.529718004E0,-1.374999993E-4,1.649999991E-3,1.649999991E-3
3.532218314E0,-1.374999993E-4,-5.499999970E-4,-5.499999970E-4
3.534718927E0,9.624999948E-4,5.499999970E-4,-1.649999991E-3
3.537219223E0,9.624999948E-4,5.499999970E-4,-2.612499986E-3
3.539719836E0,-1.374999993E-4,-5.499999970E-4,-3.712499980E-3
3.542220146E0,-1.374999993E-4,1.649999991E-3,-6.874999963E-3
3.544720759E0,9.624999948E-4,5.499999970E-4,-6.874999963E-3
3.547221069E0,9.624999948E-4,5.499999970E-4,-6.874999963E-3
3.549721606E0,-1.374999993E-4,-5.499999970E-4,-7.974999957E-3
3.552221992E0,-1.099999994E-3,-1.649999991E-3,-1.003750041E-2
3.554722529E0,-1.374999993E-4,-5.499999970E-4,-9.074999951E-3
3.557222915E0,2.062499989E-3,1.649999991E-3,-9.074999951E-3
3.559723437E0,-1.374999993E-4,-1.649999991E-3,-1.113750041E-2
3.562223823E0,-1.374999993E-4,-1.649999991E-3,-1.003750041E-2
3.564724360E0,-1.099999994E-3,5.499999970E-4,-1.113750041E-2
3.567224746E0,9.624999948E-4,-1.649999991E-3,-1.333750039E-2
3.569725278E0,-1.374999993E-4,5.499999970E-4,-1.113750041E-2
3.572225665E0,9.624999948E-4,-5.499999970E-4,-1.003750041E-2
3.574725972E0,-1.099999994E-3,1.649999991E-3,-1.113750041E-2
3.577226509E0,-1.374999993E-4,-1.649999991E-3,-1.113750041E-2
3.579726895E0,-1.374999993E-4,5.499999970E-4,-1.003750041E-2
3.582227432E0,-1.099999994E-3,-5.499999970E-4,-1.003750041E-2
3.584727818E0,9.624999948E-4,-5.499999970E-4,-7.974999957E-3
3.587228355E0,-1.374999993E-4,-5.499999970E-4,-1.003750041E-2
3.589728757E0,-1.374999993E-4,-5.499999970E-4,-6.874999963E-3
3.592229293E0,9.624999948E-4,5.499999970E-4,-7.974999957E-3
3.594729680E0,-1.374999993E-4,5.499999970E-4,-5.774999969E-3
3.597230216E0,9.624999948E-4,-5.499999970E-4,-5.774999969E-3
3.599730521E0,-1.374999993E-4,5.499999970E-4,-3.712499980E-3
3.602230903E0,9.624999948E-4,5.499999970E-4,-2.612499986E-3
3.604731442E0,-1.374999993E-4,-5.499999970E-4,-1.649999991E-3
3.607232057E0,-1.374999993E-4,5.499999970E-4,-5.499999970E-4
3.609732367E0,-1.099999994E-3,5.499999970E-4,1.649999991E-3
3.612232951E0,2.062499989E-3,-5.499999970E-4,1.649999991E-3
3.614733261E0,-1.099999994E-3,-5.499999970E-4,2.612499986E-3
3.617233646E0,-1.374999993E-4,-5.499999970E-4,1.649999991E-3
3.619734182E0,9.624999948E-4,1.649999991E-3,2.612499986E-3
3.622234579E0,9.624999948E-4,1.649999991E-3,4.812499974E-3
3.624735115E0,9.624999948E-4,1.649999991E-3,3.712499980E-3
3.627235502E0,9.624999948E-4,-5.499999970E-4,3.712499980E-3
3.629736038E0,-1.374999993E-4,5.499999970E-4,5.912499968E-3
3.632236415E0,-1.374999993E-4,5.499999970E-4,1.649999991E-3
3.634736951E0,-1.374999993E-4,-5.499999970E-4,3.712499980E-3
3.637237338E0,9.624999948E-4,5.499999970E-4,3.712499980E-3
3.639737874E0,2.062499989E-3,-1.649999991E-3,1.649999991E-3
3.642238261E0,-1.374999993E-4,1.649999991E-3,2.612499986E-3
3.644738793E0,-1.374999993E-4,-5.499999970E-4,1.649999991E-3
3.647239102E0,-1.374999993E-4,-5.499999970E-4,5.499999970E-4
3.649739485E0,9.624999948E-4,5.499999970E-4,1.649999991E-3
3.652240023E0,-1.099999994E-3,5.499999970E-4,1.649999991E-3
3.654740429E0,-1.374999993E-4,5.499999970E-4,1.649999991E-3
3.657240965E0,9.624999948E-4,5.499999970E-4,-5.499999970E-4
3.659741352E0,-1.374999993E-4,5.499999970E-4,5.499999970E-4
3.662241889E0,9.624999948E-4,-1.649999991E-3,-1.649999991E-3
3.664742275E0,9.624999948E-4,5.499999970E-4,-2.612499986E-3
3.667242856E0,9.624999948E-4,5.499999970E-4,-2.612499986E-3
3.669743242E0,9.624999948E-4,1.649999991E-3,-3.712499980E-3
3.672243550E0,-1.374999993E-4,1.649999991E-3,-5.774999969E-3
3.674744086E0,-2.199999988E-3,5.499999970E-4,-3.712499980E-3
3.677244488E0,-1.374999993E-4,5.499999970E-4,-6.874999963E-3
3.679745025E0,-1.374999993E-4,5.499999970E-4,-7.974999957E-3
3.682245411E0,9.624999948E-4,5.499999970E-4,-6.874999963E-3
3.684745948E0,-1.374999993E-4,-5.499999970E-4,-7.974999957E-3
3.687246295E0,-1.374999993E-4,-5.499999970E-4,-7.974999957E-3
3.689746832E0,-1.374999993E-4,-5.499999970E-4,-9.074999951E-3
3.692247218E0,9.624999948E-4,-5.499999970E-4,-7.974999957E-3
3.694747755E0,9.624999948E-4,-5.499999970E-4,-7.974999957E-3
3.697248141E0,2.062499989E-3,-2.612499986E-3,-7.974999957E-3
3.699748702E0,-1.374999993E-4,-5.499999970E-4,-6.874999963E-3
3.702249088E0,-1.374999993E-4,5.499999970E-4,-7.974999957E-3
3.704749625E0,-1.099999994E-3,-5.499999970E-4,-7.974999957E-3
3.707250012E0,-1.374999993E-4,-2.612499986E-3,-9.074999951E-3
3.709750548E0,9.624999948E-4,-5.499999970E-4,-9.074999951E-3
3.712250935E0,9.624999948E-4,-5.499999970E-4,-9.074999951E-3
3.714751471E0,9.624999948E-4,5.499999970E-4,-9.074999951E-3
3.717251858E0,-1.374999993E-4,-5.499999970E-4,-1.003750041E-2
3.719752165E0,-1.099999994E-3,-5.499999970E-4,-9.074999951E-3
3.722252702E0,-1.374999993E-4,-5.499999970E-4,-1.003750041E-2
3.724753089E0,9.624999948E-4,5.499999970E-4,-1.113750041E-2
3.727253625E0,-1.099999994E-3,5.499999970E-4,-1.113750041E-2
3.729754003E0,9.624999948E-4,-5.499999970E-4,-1.333750039E-2
3.732254539E0,2.062499989E-3,1.649999991E-3,-1.223750040E-2
3.734754926E0,9.624999948E-4,5.499999970E-4,-1.113750041E-2
3.737255462E0,-1.374999993E-4,1.649999991E-3,-1.223750040E-2
3.739755849E0,9.624999948E-4,1.649999991E-3,-1.113750041E-2
3.742256385E0,-1.374999993E-4,-5.499999970E-4,-1.113750041E-2
3.744756772E0,9.624999948E-4,1.649999991E-3,-1.003750041E-2
3.747257080E0,-1.099999994E-3,-5.499999970E-4,-9.074999951E-3
3.749757616E0,-1.374999993E-4,-5.499999970E-4,-1.003750041E-2
3.752257988E0,-1.374999993E-4,-5.499999970E-4,-1.003750041E-2
3.754758524E0,9.624999948E-4,1.649999991E-3,-9.074999951E-3
3.757258911E0,-1.374999993E-4,5.499999970E-4,-1.003750041E-2
3.759759447E0,9.624999948E-4,5.499999970E-4,-9.074999951E-3
3.762259834E0,-1.099999994E-3,5.499999970E-4,-1.113750041E-2
3.764760370E0,9.624999948E-4,-1.649999991E-3,-1.003750041E-2
3.767260757E0,-2.199999988E-3,5.499999970E-4,-9.074999951E-3
3.769761293E0,-1.099999994E-3,-5.499999970E-4,-1.113750041E-2
3.772261680E0,9.624999948E-4,-5.499999970E-4,-1.113750041E-2
3.774762213E0,-1.099999994E-3,-5.499999970E-4,-1.113750041E-2
3.777262599E0,-1.099999994E-3,5.499999970E-4,-1.113750041E-2
3.779763136E0,-1.374999993E-4,-1.649999991E-3,-1.003750041E-2
3.782263522E0,-1.374999993E-4,1.649999991E-3,-9.074999951E-3
3.784764063E0,-1.374999993E-4,-5.499999970E-4,-1.113750041E-2
3.787264449E0,-1.099999994E-3,5.499999970E-4,-9.074999951E-3
3.789764986E0,9.624999948E-4,5.499999970E-4,-7.974999957E-3
3.792265295E0,-1.374999993E-4,5.499999970E-4,-6.874999963E-3
3.794765678E0,-1.374999993E-4,5.499999970E-4,-5.774999969E-3
3.797266217E0,9.624999948E-4,-1.649999991E-3,-5.774999969E-3
3.799766603E0,-1.374999993E-4,-5.499999970E-4,-5.774999969E-3
3.802267140E0,9.624999948E-4,-5.499999970E-4,-4.812499974E-3
3.804767526E0,-1.374999993E-4,-5.499999970E-4,-5.774999969E-3
3.807268063E0,9.624999948E-4,-5.499999970E-4,-3.712499980E-3
3.809768449E0,-1.374999993E-4,5.499999970E-4,-4.812499974E-3
3.812268986E0,-1.374999993E-4,-5.499999970E-4,-3.712499980E-3
3.814769372E0,9.624999948E-4,5.499999970E-4,-4.812499974E-3
3.817269919E0,-1.374999993E-4,1.649999991E-3,-3.712499980E-3
3.819770306E0,-1.374999993E-4,-5.499999970E-4,-4.812499974E-3
3.822270613E0,-1.374999993E-4,5.499999970E-4,-2.612499986E-3
3.824771150E0,9.624999948E-4,-1.649999991E-3,-5.774999969E-3
3.827271536E0,-1.374999993E-4,-5.499999970E-4,-3.712499980E-3
3.829772073E0,-1.374999993E-4,-5.499999970E-4,-4.812499974E-3
3.832272459E0,-1.099999994E-3,5.499999970E-4,-2.612499986E-3
3.834772996E0,9.624999948E-4,1.649999991E-3,-1.649999991E-3
3.837273363E0,9.624999948E-4,-5.499999970E-4,-1.649999991E-3
3.839773900E0,9.624999948E-4,-5.499999970E-4,-5.499999970E-4
3.842274287E0,9.624999948E-4,-5.499999970E-4,1.649999991E-3
3.844774823E0,9.624999948E-4,1.649999991E-3,2.612499986E-3
3.847275210E0,9.624999948E-4,-5.499999970E-4,3.712499980E-3
3.849775741E0,-1.374999993E-4,5.499999970E-4,4.812499974E-3
3.852276128E0,-1.374999993E-4,5.499999970E-4,4.812499974E-3
3.854776435E0,9.624999948E-4,5.499999970E-4,6.874999963E-3
3.857277049E0,-1.374999993E-4,5.499999970E-4,5.912499968E-3
3.859777373E0,-1.099999994E-3,5.499999970E-4,7.974999957E-3
3.862277986E0,-1.374999993E-4,5.499999970E-4,9.074999951E-3
3.864778296E0,9.624999948E-4,5.499999970E-4,1.017499994E-2
3.867278909E0,9.624999948E-4,1.649999991E-3,1.017499994E-2
3.869779205E0,9.624999948E-4,5.499999970E-4,9.074999951E-3
3.872279741E0,9.624999948E-4,5.499999970E-4,1.113750041E-2
3.874780128E0,-1.374999993E-4,1.649999991E-3,1.017499994E-2
3.877280664E0,2.062499989E-3,-5.499999970E-4,1.223750040E-2
3.879781046E0,-1.374999993E-4,-5.499999970E-4,1.113750041E-2
3.882281582E0,-1.374999993E-4,-1.649999991E-3,1.017499994E-2
3.884781969E0,-1.374999993E-4,5.499999970E-4,1.443750039E-2
3.887282505E0,-1.374999993E-4,1.649999991E-3,1.113750041E-2
3.889782892E0,2.062499989E-3,5.499999970E-4,1.017499994E-2
3.892283424E0,-1.374999993E-4,1.649999991E-3,7.974999957E-3
3.894783733E0,2.062499989E-3,-5.499999970E-4,1.017499994E-2
3.897284116E0,9.624999948E-4,5.499999970E-4,7.974999957E-3
3.899784654E0,9.624999948E-4,-5.499999970E-4,9.074999951E-3
3.902285065E0,-1.374999993E-4,1.649999991E-3,7.974999957E-3
3.904785601E0,-1.374999993E-4,5.499999970E-4,5.912499968E-3
3.907285988E0,-1.374999993E-4,5.499999970E-4,4.812499974E-3
3.909786525E0,9.624999948E-4,-5.499999970E-4,2.612499986E-3
3.912286916E0,9.624999948E-4,5.499999970E-4,5.499999970E-4
3.914787453E0,-1.374999993E-4,-5.499999970E-4,-1.649999991E-3
3.917287839E0,-1.374999993E-4,5.499999970E-4,-2.612499986E-3
3.919788376E0,9.624999948E-4,5.499999970E-4,-3.712499980E-3
3.922288675E0,2.062499989E-3,-5.499999970E-4,-7.974999957E-3
3.924789289E0,9.624999948E-4,5.499999970E-4,-5.774999969E-3
3.927289598E0,-1.099999994E-3,-5.499999970E-4,-1.003750041E-2
3.929790212E0,-1.374999993E-4,-5.499999970E-4,-1.113750041E-2
3.932290522E0,-1.374999993E-4,-5.499999970E-4,-1.223750040E-2
3.934791135E0,-1.374999993E-4,-5.499999970E-4,-1.333750039E-2
3.937291445E0,9.624999948E-4,-1.649999991E-3,-1.429999992E-2
3.939791829E0,-1.374999993E-4,5.499999970E-4,-1.223750040E-2
3.942292366E0,-1.374999993E-4,5.499999970E-4,-1.333750039E-2
3.944792762E0,-1.374999993E-4,-5.499999970E-4,-1.539999992E-2
3.947293299E0,-2.199999988E-3,1.649999991E-3,-1.333750039E-2
3.949793685E0,-1.374999993E-4,-5.499999970E-4,-1.429999992E-2
3.952294222E0,9.624999948E-4,-1.649999991E-3,-1.539999992E-2
3.954794614E0,-1.099999994E-3,-5.499999970E-4,-1.539999992E-2
3.957295150E0,-1.374999993E-4,-5.499999970E-4,-1.539999992E-2
3.959795460E0,-1.099999994E-3,5.499999970E-4,-1.759999990E-2
3.962296073E0,-1.374999993E-4,-5.499999970E-4,-1.856249943E-2
3.964796383E0,-1.374999993E-4,5.499999970E-4,-1.649999991E-2
3.967296996E0,9.624999948E-4,-1.649999991E-3,-1.759999990E-2
3.969797306E0,9.624999948E-4,-5.499999970E-4,-1.649999991E-2
3.972297691E0,-1.374999993E-4,5.499999970E-4,-1.539999992E-2
3.974798227E0,9.624999948E-4,5.499999970E-4,-1.333750039E-2
3.977298628E0,9.624999948E-4,-1.649999991E-3,-1.223750040E-2
3.979799164E0,9.624999948E-4,-5.499999970E-4,-1.223750040E-2
3.982299551E0,-1.374999993E-4,5.499999970E-4,-1.113750041E-2
3.984800087E0,9.624999948E-4,-1.649999991E-3,-9.074999951E-3
3.987300464E0,-1.099999994E-3,5.499999970E-4,-6.874999963E-3
3.989801000E0,9.624999948E-4,-5.499999970E-4,-5.774999969E-3
3.992301387E0,-1.374999993E-4,5.499999970E-4,-3.712499980E-3
3.994801695E0,9.624999948E-4,-5.499999970E-4,-1.649999991E-3
3.997302294E0,-1.374999993E-4,-5.499999970E-4,-1.649999991E-3
3.999802604E0,-1.374999993E-4,-5.499999970E-4,5.499999970E-4
4.002303140E0,-1.374999993E-4,5.499999970E-4,1.649999991E-3
4.004803527E0,-1.374999993E-4,-5.499999970E-4,2.612499986E-3
4.007304053E0,9.624999948E-4,5.499999970E-4,1.649999991E-3
4.009804440E0,9.624999948E-4,5.499999970E-4,1.649999991E-3
4.012304976E0,-1.374999993E-4,-5.499999970E-4,3.712499980E-3
4.014805363E0,2.062499989E-3,-5.499999970E-4,3.712499980E-3
4.017305899E0,-1.374999993E-4,-5.499999970E-4,3.712499980E-3
4.019806271E0,-1.099999994E-3,1.649999991E-3,2.612499986E-3
4.022306807E0,2.062499989E-3,-1.649999991E-3,3.712499980E-3
4.024807194E0,9.624999948E-4,5.499999970E-4,2.612499986E-3
4.027307502E0,-1.374999993E-4,-5.499999970E-4,2.612499986E-3
4.029808120E0,9.624999948E-4,5.499999970E-4,2.612499986E-3
4.032308430E0,-1.374999993E-4,-5.499999970E-4,2.612499986E-3
4.034809043E0,-1.374999993E-4,1.649999991E-3,5.499999970E-4
4.037309353E0,9.624999948E-4,-5.499999970E-4,1.649999991E-3
4.039809894E0,-1.374999993E-4,5.499999970E-4,2.612499986E-3
4.042310281E0,-1.374999993E-4,-5.499999970E-4,5.499999970E-4
4.044810818E0,9.624999948E-4,5.499999970E-4,-5.499999970E-4
4.047311204E0,-1.374999993E-4,5.499999970E-4,-1.649999991E-3
4.049811736E0,9.624999948E-4,5.499999970E-4,-2.612499986E-3
4.052312122E0,9.624999948E-4,-5.499999970E-4,-2.612499986E-3
4.054812659E0,-1.374999993E-4,5.499999970E-4,-3.712499980E-3
4.057313045E0,-1.374999993E-4,-5.499999970E-4,-5.774999969E-3
4.059813591E0,9.624999948E-4,5.499999970E-4,-5.774999969E-3
4.062313977E0,-1.374999993E-4,5.499999970E-4,-6.874999963E-3
4.064814285E0,-1.374999993E-4,5.499999970E-4,-6.874999963E-3
4.067314822E0,-1.374999993E-4,-2.612499986E-3,-6.874999963E-3
4.069815199E0,-1.374999993E-4,1.649999991E-3,-7.974999957E-3
4.072315736E0,-1.374999993E-4,-1.649999991E-3,-7.974999957E-3
4.074816122E0,-1.374999993E-4,5.499999970E-4,-1.003750041E-2
4.077316659E0,-1.099999994E-3,2.612499986E-3,-1.003750041E-2
4.079817045E0,-1.374999993E-4,-1.649999991E-3,-1.003750041E-2
4.082317577E0,9.624999948E-4,-5.499999970E-4,-1.223750040E-2
4.084817963E0,-1.374999993E-4,-5.499999970E-4,-1.113750041E-2
4.087318500E0,-1.099999994E-3,5.499999970E-4,-1.113750041E-2
4.089818887E0,9.624999948E-4,5.499999970E-4,-1.113750041E-2
4.092319437E0,-1.374999993E-4,-5.499999970E-4,-1.113750041E-2
4.094819824E0,-1.374999993E-4,5.499999970E-4,-1.003750041E-2
4.097320360E0,-1.099999994E-3,-5.499999970E-4,-1.223750040E-2
4.099820747E0,9.624999948E-4,5.499999970E-4,-1.003750041E-2
4.102321269E0,-1.099999994E-3,-2.612499986E-3,-1.113750041E-2
4.104821579E0,-1.374999993E-4,-5.499999970E-4,-7.974999957E-3
4.107321962E0,-1.374999993E-4,5.499999970E-4,-7.974999957E-3
4.109822500E0,9.624999948E-4,5.499999970E-4,-4.812499974E-3
4.112322882E0,-1.099999994E-3,-1.649999991E-3,-3.712499980E-3
4.114823418E0,9.624999948E-4,-5.499999970E-4,-4.812499974E-3
4.117323805E0,9.624999948E-4,5.499999970E-4,1.649999991E-3
4.119824341E0,-1.374999993E-4,5.499999970E-4,5.499999970E-4
4.122324737E0,-1.374999993E-4,5.499999970E-4,3.712499980E-3
4.124825273E0,-1.374999993E-4,-5.499999970E-4,5.912499968E-3
4.127325660E0,9.624999948E-4,-1.649999991E-3,9.074999951E-3
4.129826196E0,9.624999948E-4,5.499999970E-4,9.074999951E-3
4.132326583E0,-1.374999993E-4,5.499999970E-4,1.017499994E-2
4.134826901E0,9.624999948E-4,5.499999970E-4,1.113750041E-2
4.137327437E0,-1.374999993E-4,5.499999970E-4,1.443750039E-2
4.139827824E0,-1.374999993E-4,5.499999970E-4,1.649999991E-2
4.142328360E0,-1.099999994E-3,5.499999970E-4,1.649999991E-2
4.144828737E0,9.624999948E-4,1.649999991E-3,1.759999990E-2
4.147329273E0,2.062499989E-3,5.499999970E-4,1.759999990E-2
4.149829660E0,-1.374999993E-4,1.649999991E-3,1.966249943E-2
4.152330196E0,9.624999948E-4,5.499999970E-4,1.869999990E-2
4.154830603E0,9.624999948E-4,5.499999970E-4,2.076249942E-2
4.157331139E0,2.062499989E-3,1.649999991E-3,2.186249942E-2
4.159831526E0,9.624999948E-4,5.499999970E-4,2.186249942E-2
4.162332063E0,9.624999948E-4,5.499999970E-4,2.076249942E-2
4.164832473E0,-1.374999993E-4,5.499999970E-4,2.282499894E-2
4.167333010E0,2.062499989E-3,5.499999970E-4,2.076249942E-2
4.169833396E0,-1.374999993E-4,5.499999970E-4,2.076249942E-2
4.172333704E0,9.624999948E-4,1.649999991E-3,1.966249943E-2
4.174834312E0,-1.374999993E-4,5.499999970E-4,1.759999990E-2
4.177334622E0,9.624999948E-4,5.499999970E-4,1.759999990E-2
4.179835159E0,-1.374999993E-4,5.499999970E-4,1.539999992E-2
4.182335545E0,9.624999948E-4,-5.499999970E-4,1.113750041E-2
4.184836097E0,9.624999948E-4,5.499999970E-4,1.113750041E-2
4.187336483E0,2.062499989E-3,5.499999970E-4,9.074999951E-3
4.189837020E0,9.624999948E-4,5.499999970E-4,7.974999957E-3
4.192337406E0,-1.374999993E-4,5.499999970E-4,6.874999963E-3
4.194837943E0,-1.099999994E-3,-5.499999970E-4,2.612499986E-3
4.197338329E0,9.624999948E-4,5.499999970E-4,1.649999991E-3
4.199838866E0,-1.374999993E-4,-5.499999970E-4,5.499999970E-4
4.202339253E0,-1.374999993E-4,5.499999970E-4,-1.649999991E-3
4.204839789E0,9.624999948E-4,5.499999970E-4,-3.712499980E-3
4.207340191E0,-1.374999993E-4,5.499999970E-4,-4.812499974E-3
4.209840498E0,-1.374999993E-4,-5.499999970E-4,-4.812499974E-3
4.212341035E0,-1.374999993E-4,5.499999970E-4,-7.974999957E-3
4.214841421E0,-1.099999994E-3,-5.499999970E-4,-5.774999969E-3
4.217341958E0,9.624999948E-4,5.499999970E-4,-6.874999963E-3
4.219842358E0,-1.374999993E-4,1.649999991E-3,-9.074999951E-3
4.222342895E0,-1.374999993E-4,-5.499999970E-4,-1.003750041E-2
4.224843282E0,9.624999948E-4,-5.499999970E-4,-1.003750041E-2
4.227343818E0,-1.374999993E-4,-1.649999991E-3,-9.074999951E-3
4.229844205E0,-1.374999993E-4,1.649999991E-3,-9.074999951E-3
4.232344741E0,-1.374999993E-4,-5.499999970E-4,-1.003750041E-2
4.234845051E0,-2.199999988E-3,-5.499999970E-4,-1.113750041E-2
4.237345664E0,9.624999948E-4,-5.499999970E-4,-1.003750041E-2
4.239845984E0,-1.374999993E-4,5.499999970E-4,-9.074999951E-3
4.242346369E0,9.624999948E-4,-5.499999970E-4,-9.074999951E-3
4.244846905E0,9.624999948E-4,5.499999970E-4,-1.003750041E-2
4.247347292E0,-1.374999993E-4,5.499999970E-4,-6.874999963E-3
4.249847828E0,-1.374999993E-4,-1.649999991E-3,-5.774999969E-3
4.252348215E0,9.624999948E-4,5.499999970E-4,-6.874999963E-3
4.254848751E0,-1.374999993E-4,-5.499999970E-4,-6.874999963E-3
4.257349138E0,-1.374999993E-4,-5.499999970E-4,-4.812499974E-3
4.259849674E0,2.062499989E-3,-5.499999970E-4,-4.812499974E-3
4.262350070E0,9.624999948E-4,-5.499999970E-4,-3.712499980E-3
4.264850606E0,9.624999948E-4,-5.499999970E-4,-3.712499980E-3
4.267350993E0,-1.374999993E-4,-5.499999970E-4,-2.612499986E-3
4.269851529E0,9.624999948E-4,-5.499999970E-4,-2.612499986E-3
4.272351916E0,-1.374999993E-4,-5.499999970E-4,-2.612499986E-3
4.274852476E0,-1.374999993E-4,-1.649999991E-3,-1.649999991E-3
4.277352785E0,-1.374999993E-4,-1.649999991E-3,-1.649999991E-3
4.279853399E0,-1.374999993E-4,-5.499999970E-4,-5.499999970E-4
4.282353708E0,9.624999948E-4,-5.499999970E-4,-5.499999970E-4
4.284854088E0,2.062499989E-3,5.499999970E-4,-5.499999970E-4
4.287354624E0,-1.099999994E-3,-5.499999970E-4,-5.499999970E-4
4.289855011E0,-1.374999993E-4,5.499999970E-4,1.649999991E-3
4.292355548E0,9.624999948E-4,5.499999970E-4,2.612499986E-3
4.294855926E0,-1.374999993E-4,1.649999991E-3,2.612499986E-3
4.297356463E0,9.624999948E-4,-1.649999991E-3,5.912499968E-3
4.299856849E0,9.624999948E-4,1.649999991E-3,3.712499980E-3
4.302357386E0,9.624999948E-4,-5.499999970E-4,5.912499968E-3
4.304857767E0,-1.099999994E-3,-5.499999970E-4,5.912499968E-3
4.307358075E0,2.062499989E-3,1.649999991E-3,6.874999963E-3
4.309858611E0,2.062499989E-3,5.499999970E-4,6.874999963E-3
4.312358998E0,2.062499989E-3,-5.499999970E-4,7.974999957E-3
4.314859548E0,9.624999948E-4,5.499999970E-4,7.974999957E-3
4.317359934E0,9.624999948E-4,5.499999970E-4,9.074999951E-3
4.319860471E0,9.624999948E-4,-5.499999970E-4,9.074999951E-3
4.322360857E0,-1.374999993E-4,5.499999970E-4,9.074999951E-3
4.324861394E0,-1.374999993E-4,1.649999991E-3,9.074999951E-3
4.327361785E0,9.624999948E-4,5.499999970E-4,7.974999957E-3
4.329862322E0,-1.374999993E-4,2.612499986E-3,7.974999957E-3
4.332362708E0,2.062499989E-3,5.499999970E-4,6.874999963E-3
4.334863245E0,9.624999948E-4,-5.499999970E-4,6.874999963E-3
4.337363619E0,9.624999948E-4,5.499999970E-4,6.874999963E-3
4.339863926E0,-1.374999993E-4,5.499999970E-4,4.812499974E-3
4.342364540E0,-1.374999993E-4,5.499999970E-4,5.912499968E-3
4.344864849E0,9.624999948E-4,5.499999970E-4,3.712499980E-3
4.347365463E0,9.624999948E-4,1.649999991E-3,3.712499980E-3
4.349865785E0,-1.099999994E-3,-1.649999991E-3,2.612499986E-3
4.352366399E0,-1.374999993E-4,5.499999970E-4,1.649999991E-3
4.354866709E0,9.624999948E-4,-5.499999970E-4,-5.499999970E-4
4.357367245E0,9.624999948E-4,-5.499999970E-4,-5.499999970E-4
4.359867618E0,-1.099999994E-3,-5.499999970E-4,-3.712499980E-3
4.362368154E0,2.062499989E-3,-5.499999970E-4,-2.612499986E-3
4.364868541E0,-1.099999994E-3,5.499999970E-4,-6.874999963E-3
4.367369077E0,9.624999948E-4,5.499999970E-4,-1.003750041E-2
4.369869449E0,9.624999948E-4,-1.649999991E-3,-1.003750041E-2
4.372369985E0,-1.374999993E-4,-1.649999991E-3,-1.333750039E-2
4.374870372E0,-1.374999993E-4,5.499999970E-4,-1.539999992E-2
4.377370680E0,-1.374999993E-4,-5.499999970E-4,-1.539999992E-2
4.379871197E0,-1.099999994E-3,-5.499999970E-4,-1.856249943E-2
4.382371584E0,-1.099999994E-3,-5.499999970E-4,-2.076249942E-2
4.384872120E0,-1.099999994E-3,5.499999970E-4,-2.186249942E-2
4.387372507E0,-1.099999994E-3,-5.499999970E-4,-2.392499894E-2
4.389873043E0,-1.099999994E-3,-1.649999991E-3,-2.502499893E-2
4.392373420E0,-1.374999993E-4,-1.649999991E-3,-2.708750032E-2
4.394873956E0,-1.099999994E-3,-5.499999970E-4,-2.708750032E-2
4.397374343E0,9.624999948E-4,-5.499999970E-4,-2.502499893E-2
4.399874879E0,-1.099999994E-3,-5.499999970E-4,-2.708750032E-2
4.402375247E0,-1.374999993E-4,-1.649999991E-3,-2.612499893E-2
4.404875783E0,-1.374999993E-4,-1.649999991E-3,-2.708750032E-2
4.407376170E0,-1.099999994E-3,-5.499999970E-4,-2.708750032E-2
4.409876707E0,-1.099999994E-3,-5.499999970E-4,-2.612499893E-2
4.412377006E0,9.624999948E-4,-1.649999991E-3,-2.612499893E-2
4.414877620E0,-1.099999994E-3,-5.499999970E-4,-2.502499893E-2
4.417377929E0,-1.099999994E-3,-5.499999970E-4,-2.186249942E-2
4.419878543E0,-1.374999993E-4,-5.499999970E-4,-1.966249943E-2
4.422378847E0,-1.099999994E-3,-1.649999991E-3,-1.856249943E-2
4.424879232E0,9.624999948E-4,-5.499999970E-4,-1.759999990E-2
4.427379769E0,9.624999948E-4,-5.499999970E-4,-1.539999992E-2
4.429880155E0,-1.099999994E-3,5.499999970E-4,-1.429999992E-2
4.432380697E0,-1.374999993E-4,-5.499999970E-4,-1.113750041E-2
4.434881083E0,-1.374999993E-4,5.499999970E-4,-7.974999957E-3
4.437381620E0,-1.374999993E-4,5.499999970E-4,-6.874999963E-3
4.439882006E0,-1.374999993E-4,-5.499999970E-4,-5.774999969E-3
4.442382534E0,-1.099999994E-3,-5.499999970E-4,-1.649999991E-3
4.444882920E0,9.624999948E-4,5.499999970E-4,-2.612499986E-3
4.447383457E0,-1.374999993E-4,5.499999970E-4,1.649999991E-3
4.449883767E0,-1.374999993E-4,-5.499999970E-4,2.612499986E-3
4.452384149E0,-1.374999993E-4,5.499999970E-4,5.912499968E-3
4.454884697E0,-1.374999993E-4,5.499999970E-4,9.074999951E-3
4.457385083E0,9.624999948E-4,-1.649999991E-3,1.017499994E-2
4.459885620E0,-1.099999994E-3,2.612499986E-3,1.017499994E-2
4.462386006E0,-1.374999993E-4,2.612499986E-3,1.113750041E-2
4.464886534E0,2.062499989E-3,5.499999970E-4,1.223750040E-2
4.467386920E0,9.624999948E-4,5.499999970E-4,1.333750039E-2
4.469887457E0,-1.374999993E-4,5.499999970E-4,1.333750039E-2
4.472387844E0,9.624999948E-4,1.649999991E-3,1.539999992E-2
4.474888380E0,2.062499989E-3,5.499999970E-4,1.539999992E-2
4.477388767E0,-1.374999993E-4,5.499999970E-4,1.539999992E-2
4.479889303E0,9.624999948E-4,1.649999991E-3,1.443750039E-2
4.482389690E0,-1.374999993E-4,5.499999970E-4,1.539999992E-2
4.484890226E0,9.624999948E-4,1.649999991E-3,1.539999992E-2
4.487390521E0,2.062499989E-3,5.499999970E-4,1.333750039E-2
4.489890904E0,9.624999948E-4,5.499999970E-4,1.223750040E-2
4.492391442E0,2.062499989E-3,1.649999991E-3,1.223750040E-2
4.494891829E0,9.624999948E-4,1.649999991E-3,1.223750040E-2
4.497392327E0,9.624999948E-4,-5.499999970E-4,1.017499994E-2
4.499892714E0,-1.099999994E-3,5.499999970E-4,1.017499994E-2
4.502393250E0,2.062499989E-3,5.499999970E-4,9.074999951E-3
4.504893637E0,-1.374999993E-4,1.649999991E-3,7.974999957E-3
4.507394158E0,2.062499989E-3,-5.499999970E-4,6.874999963E-3
4.509894545E0,9.624999948E-4,5.499999970E-4,5.912499968E-3
4.512395081E0,-1.099999994E-3,1.649999991E-3,4.812499974E-3
4.514895468E0,9.624999948E-4,-5.499999970E-4,4.812499974E-3
4.517395762E0,-1.374999993E-4,5.499999970E-4,3.712499980E-3
4.519896298E0,-1.099999994E-3,5.499999970E-4,4.812499974E-3
4.522396685E0,-1.374999993E-4,-1.649999991E-3,3.712499980E-3
4.524897221E0,9.624999948E-4,1.649999991E-3,3.712499980E-3
4.527397608E0,2.062499989E-3,5.499999970E-4,2.612499986E-3
4.529898149E0,-1.099999994E-3,5.499999970E-4,3.712499980E-3
4.532398536E0,9.624999948E-4,5.499999970E-4,4.812499974E-3
4.534899072E0,9.624999948E-4,5.499999970E-4,4.812499974E-3
4.537399459E0,-1.374999993E-4,5.499999970E-4,5.912499968E-3
4.539899995E0,-1.374999993E-4,5.499999970E-4,4.812499974E-3
4.542400382E0,-1.374999993E-4,5.499999970E-4,4.812499974E-3
4.544900919E0,9.624999948E-4,-5.499999970E-4,7.974999957E-3
4.547401305E0,-1.374999993E-4,1.649999991E-3,6.874999963E-3
4.549901833E0,9.624999948E-4,5.499999970E-4,5.912499968E-3
4.552402142E0,9.624999948E-4,5.499999970E-4,7.974999957E-3
4.554902525E0,9.624999948E-4,5.499999970E-4,7.974999957E-3
4.557403063E0,-1.374999993E-4,-5.499999970E-4,9.074999951E-3
4.559903454E0,-1.374999993E-4,1.649999991E-3,1.017499994E-2
4.562403991E0,9.624999948E-4,1.649999991E-3,9.074999951E-3
4.564904377E0,-1.374999993E-4,5.499999970E-4,1.017499994E-2
4.567404914E0,2.062499989E-3,1.649999991E-3,1.223750040E-2
4.569905300E0,-1.374999993E-4,-5.499999970E-4,1.113750041E-2
4.572405837E0,9.624999948E-4,5.499999970E-4,1.223750040E-2
4.574906223E0,-1.374999993E-4,5.499999970E-4,1.333750039E-2
4.577406760E0,-1.374999993E-4,5.499999970E-4,1.333750039E-2
4.579907146E0,-1.374999993E-4,-5.499999970E-4,1.443750039E-2
4.582407688E0,-1.374999993E-4,-5.499999970E-4,1.443750039E-2
4.584908075E0,-1.374999993E-4,1.649999991E-3,1.649999991E-2
4.587408382E0,9.624999948E-4,5.499999970E-4,1.539999992E-2
4.589908919E0,2.062499989E-3,2.612499986E-3,1.539999992E-2
4.592409300E0,9.624999948E-4,5.499999970E-4,1.539999992E-2
4.594909837E0,9.624999948E-4,5.499999970E-4,1.649999991E-2
4.597410223E0,9.624999948E-4,5.499999970E-4,1.649999991E-2
4.599910760E0,2.062499989E-3,-5.499999970E-4,1.539999992E-2
4.602411127E0,-1.374999993E-4,1.649999991E-3,1.539999992E-2
4.604911664E0,9.624999948E-4,5.499999970E-4,1.539999992E-2
4.607412051E0,9.624999948E-4,5.499999970E-4,1.649999991E-2
4.609912587E0,9.624999948E-4,-5.499999970E-4,1.759999990E-2
4.612412969E0,9.624999948E-4,1.649999991E-3,1.539999992E-2
4.614913276E0,9.624999948E-4,5.499999970E-4,1.759999990E-2
4.617413813E0,9.624999948E-4,-5.499999970E-4,1.649999991E-2
4.619914199E0,9.624999948E-4,1.649999991E-3,1.443750039E-2
4.622414736E0,9.624999948E-4,5.499999970E-4,1.443750039E-2
4.624915114E0,-1.374999993E-4,5.499999970E-4,1.649999991E-2
4.627415650E0,2.062499989E-3,-5.499999970E-4,1.333750039E-2
4.629916037E0,9.624999948E-4,-5.499999970E-4,1.539999992E-2
4.632416573E0,9.624999948E-4,5.499999970E-4,1.443750039E-2
4.634916979E0,-1.374999993E-4,-1.649999991E-3,1.443750039E-2
4.637417515E0,9.624999948E-4,1.649999991E-3,1.539999992E-2
4.639917902E0,2.062499989E-3,-5.499999970E-4,1.869999990E-2
4.642418438E0,-1.374999993E-4,1.649999991E-3,2.076249942E-2
4.644918810E0,9.624999948E-4,5.499999970E-4,2.708750032E-2
4.647419346E0,-1.374999993E-4,1.649999991E-3,3.135000169E-2
4.649919733E0,2.062499989E-3,1.649999991E-3,3.671250120E-2
4.652420269E0,-1.374999993E-4,1.649999991E-3,4.413750023E-2
4.654920661E0,9.624999948E-4,2.612499986E-3,4.633750021E-2
4.657420969E0,2.062499989E-3,2.612499986E-3,5.376249924E-2
4.659921505E0,9.624999948E-4,-2.612499986E-3,5.376249924E-2
4.662421892E0,9.624999948E-4,3.712499980E-3,5.802499875E-2
4.664922428E0,2.062499989E-3,1.649999991E-3,6.008749828E-2
4.667422844E0,2.062499989E-3,5.499999970E-4,6.544999778E-2
4.669923380E0,3.162499983E-3,5.499999970E-4,6.764999777E-2
4.672423767E0,9.624999948E-4,5.499999970E-4,7.081250101E-2
4.674924303E0,2.062499989E-3,4.812499974E-3,7.507500052E-2
4.677424718E0,2.062499989E-3,5.499999970E-4,7.933750004E-2
4.679925255E0,9.624999948E-4,1.649999991E-3,8.030000329E-2
4.682425564E0,-1.374999993E-4,2.612499986E-3,8.359999955E-2
4.684925947E0,2.062499989E-3,2.612499986E-3,8.786249906E-2
4.687426470E0,9.624999948E-4,1.649999991E-3,9.102500230E-2
4.689926857E0,2.062499989E-3,2.612499986E-3,9.308750182E-2
4.692427393E0,9.624999948E-4,1.649999991E-3,9.528750181E-2
4.694927780E0,9.624999948E-4,2.612499986E-3,9.638749808E-2
4.697428328E0,3.162499983E-3,3.712499980E-3,9.735000134E-2
4.699928714E0,3.162499983E-3,-5.499999970E-4,9.638749808E-2
4.702429251E0,2.062499989E-3,3.712499980E-3,9.638749808E-2
4.704929637E0,9.624999948E-4,5.499999970E-4,9.735000134E-2
4.707430174E0,2.062499989E-3,1.649999991E-3,9.735000134E-2
4.709930574E0,2.062499989E-3,5.499999970E-4,9.418749809E-2
4.712431111E0,2.062499989E-3,5.499999970E-4,9.418749809E-2
4.714931497E0,3.162499983E-3,5.499999970E-4,9.308750182E-2
4.717432034E0,3.162499983E-3,-5.499999970E-4,9.212499857E-2
4.719932368E0,3.162499983E-3,1.649999991E-3,8.992499858E-2
4.722432981E0,9.624999948E-4,1.649999991E-3,8.882500231E-2
4.724933291E0,9.624999948E-4,-1.649999991E-3,8.566249907E-2
4.727433904E0,9.624999948E-4,-5.499999970E-4,8.249999583E-2
4.729934200E0,-1.374999993E-4,5.499999970E-4,7.933750004E-2
4.732434584E0,9.624999948E-4,5.499999970E-4,7.933750004E-2
4.734935121E0,9.624999948E-4,-5.499999970E-4,7.397499681E-2
4.737435507E0,9.624999948E-4,-5.499999970E-4,7.191249728E-2
4.739936068E0,9.624999948E-4,5.499999970E-4,6.861250103E-2
4.742436455E0,9.624999948E-4,-5.499999970E-4,6.338749826E-2
4.744936991E0,-1.374999993E-4,-5.499999970E-4,5.912499875E-2
4.747437378E0,9.624999948E-4,-1.649999991E-3,5.486249924E-2
4.749937675E0,9.624999948E-4,-1.649999991E-3,5.059999973E-2
4.752438212E0,9.624999948E-4,-2.612499986E-3,4.413750023E-2
4.754938598E0,9.624999948E-4,-2.612499986E-3,4.097500071E-2
4.757439135E0,-1.374999993E-4,-2.612499986E-3,3.355000168E-2
4.759939522E0,-1.374999993E-4,-3.712499980E-3,2.818750031E-2
4.762440063E0,-1.099999994E-3,-4.812499974E-3,2.502499893E-2
4.764940450E0,-1.374999993E-4,-1.649999991E-3,1.759999990E-2
4.767440986E0,-1.374999993E-4,-3.712499980E-3,1.113750041E-2
4.769941373E0,9.624999948E-4,-3.712499980E-3,7.974999957E-3
4.772441914E0,-1.374999993E-4,-5.774999969E-3,2.612499986E-3
4.774942301E0,-1.374999993E-4,-3.712499980E-3,-3.712499980E-3
4.777442837E0,-1.374999993E-4,-2.612499986E-3,-9.074999951E-3
4.779943224E0,9.624999948E-4,-3.712499980E-3,-1.223750040E-2
4.782443760E0,9.624999948E-4,-2.612499986E-3,-2.076249942E-2
4.784944152E0,9.624999948E-4,-3.712499980E-3,-2.392499894E-2
4.787444688E0,-2.199999988E-3,-2.612499986E-3,-2.928750031E-2
4.789945075E0,-1.374999993E-4,-4.812499974E-3,-3.355000168E-2
4.792445383E0,-1.374999993E-4,-3.712499980E-3,-3.987500072E-2
4.794946005E0,-1.099999994E-3,-3.712499980E-3,-4.303750023E-2
4.797446315E0,-1.099999994E-3,-4.812499974E-3,-4.949999973E-2
4.799946851E0,-1.374999993E-4,-2.612499986E-3,-5.486249924E-2
4.802447238E0,-2.199999988E-3,-5.774999969E-3,-6.008749828E-2
4.804947765E0,-1.374999993E-4,-4.812499974E-3,-6.324999779E-2
4.807448152E0,-1.099999994E-3,-2.612499986E-3,-6.751249731E-2
4.809948689E0,-1.099999994E-3,-3.712499980E-3,-7.177499682E-2
4.812449075E0,-2.199999988E-3,-3.712499980E-3,-7.603749633E-2
4.814949621E0,-1.099999994E-3,-4.812499974E-3,-7.713750005E-2
4.817450007E0,-2.199999988E-3,-2.612499986E-3,-8.139999956E-2
4.819950315E0,-1.099999994E-3,-1.649999991E-3,-8.346249908E-2
4.822450851E0,-1.374999993E-4,-2.612499986E-3,-8.566249907E-2
4.824951243E0,-3.299999982E-3,-1.649999991E-3,-8.882500231E-2
4.827451779E0,-1.099999994E-3,-2.612499986E-3,-9.102500230E-2
4.829952166E0,-1.099999994E-3,-2.612499986E-3,-9.308750182E-2
4.832452703E0,-2.199999988E-3,-2.612499986E-3,-9.528750181E-2
4.834953070E0,-1.099999994E-3,-1.649999991E-3,-9.528750181E-2
4.837453607E0,-3.299999982E-3,-2.612499986E-3,-9.624999762E-2
4.839953993E0,-1.374999993E-4,-1.649999991E-3,-9.624999762E-2
4.842454530E0,-3.299999982E-3,-2.612499986E-3,-9.624999762E-2
4.844954901E0,-1.099999994E-3,-5.499999970E-4,-9.735000134E-2
4.847455438E0,-1.099999994E-3,-2.612499986E-3,-9.844999760E-2
4.849955824E0,-1.099999994E-3,-1.649999991E-3,-9.735000134E-2
4.852456361E0,-2.199999988E-3,-1.649999991E-3,-9.624999762E-2
4.854956748E0,-1.099999994E-3,-5.499999970E-4,-9.624999762E-2
4.857457070E0,-1.374999993E-4,-1.649999991E-3,-9.418749809E-2
4.859957684E0,-2.199999988E-3,-1.649999991E-3,-9.102500230E-2
4.862457993E0,-2.199999988E-3,5.499999970E-4,-8.992499858E-2
4.864958530E0,-1.374999993E-4,-5.499999970E-4,-8.882500231E-2
4.867458916E0,-2.199999988E-3,-1.649999991E-3,-8.456250280E-2
4.869959453E0,-1.099999994E-3,5.499999970E-4,-8.249999583E-2
4.872459840E0,-1.374999993E-4,-1.649999991E-3,-7.713750005E-2
4.874960376E0,-1.099999994E-3,-5.499999970E-4,-7.287500054E-2
4.877460758E0,-1.099999994E-3,-1.649999991E-3,-6.751249731E-2
4.879961294E0,9.624999948E-4,-5.499999970E-4,-6.544999778E-2
4.882461681E0,-1.374999993E-4,1.649999991E-3,-6.228749827E-2
4.884962217E0,-1.099999994E-3,5.499999970E-4,-5.692499876E-2
4.887462517E0,-1.374999993E-4,5.499999970E-4,-5.266249925E-2
4.889962899E0,9.624999948E-4,-5.499999970E-4,-4.949999973E-2
4.892463438E0,9.624999948E-4,5.499999970E-4,-4.413750023E-2
4.894963825E0,-1.374999993E-4,5.499999970E-4,-3.987500072E-2
4.897464376E0,-1.374999993E-4,1.649999991E-3,-3.355000168E-2
4.899964763E0,9.624999948E-4,-5.499999970E-4,-3.135000169E-2
4.902465299E0,-1.099999994E-3,1.649999991E-3,-2.502499893E-2
4.904965686E0,9.624999948E-4,-1.649999991E-3,-1.856249943E-2
4.907466212E0,9.624999948E-4,-1.649999991E-3,-1.429999992E-2
4.909966599E0,-1.374999993E-4,-1.649999991E-3,-6.874999963E-3
4.912467135E0,-1.374999993E-4,5.499999970E-4,-5.499999970E-4
4.914967522E0,-1.374999993E-4,-5.499999970E-4,4.812499974E-3
4.917468058E0,9.624999948E-4,-1.649999991E-3,1.113750041E-2
4.919968382E0,9.624999948E-4,-5.499999970E-4,1.539999992E-2
4.922468995E0,9.624999948E-4,-1.649999991E-3,2.186249942E-2
4.924969305E0,2.062499989E-3,-5.499999970E-4,2.818750031E-2
4.927469919E0,9.624999948E-4,-1.649999991E-3,3.244999796E-2
4.929970228E0,-1.374999993E-4,-1.649999991E-3,3.891250119E-2
4.932470613E0,-1.374999993E-4,5.499999970E-4,4.317500070E-2
4.934971149E0,9.624999948E-4,5.499999970E-4,4.949999973E-2
4.937471536E0,9.624999948E-4,-1.649999991E-3,5.486249924E-2
4.939972077E0,2.062499989E-3,5.499999970E-4,5.802499875E-2
4.942472464E0,9.624999948E-4,-1.649999991E-3,6.118749827E-2
4.944973001E0,9.624999948E-4,5.499999970E-4,6.435000151E-2
4.947473387E0,9.624999948E-4,-1.649999991E-3,6.971249729E-2
4.949973924E0,9.624999948E-4,-5.499999970E-4,7.397499681E-2
4.952474325E0,9.624999948E-4,-1.649999991E-3,7.823749632E-2
4.954974862E0,-1.374999993E-4,-5.499999970E-4,8.139999956E-2
4.957475171E0,9.624999948E-4,-1.649999991E-3,8.456250280E-2
4.959975554E0,-1.374999993E-4,-2.612499986E-3,8.786249906E-2
4.962476087E0,9.624999948E-4,-1.649999991E-3,8.992499858E-2
4.964976474E0,2.062499989E-3,-5.499999970E-4,9.418749809E-2
4.967477011E0,9.624999948E-4,-1.649999991E-3,9.528750181E-2
4.969977397E0,9.624999948E-4,-5.499999970E-4,9.735000134E-2
4.972477938E0,9.624999948E-4,-1.649999991E-3,9.955000132E-2
4.974978324E0,2.062499989E-3,-1.649999991E-3,1.027124971E-1
4.977478861E0,9.624999948E-4,-5.499999970E-4,1.038125008E-1
4.979979170E0,2.062499989E-3,-1.649999991E-3,1.047749966E-1
4.982479558E0,3.162499983E-3,-1.649999991E-3,1.038125008E-1
4.984980173E0,9.624999948E-4,-5.499999970E-4,1.038125008E-1
4.987480483E0,3.162499983E-3,-5.499999970E-4,1.038125008E-1
4.989981097E0,9.624999948E-4,-5.499999970E-4,1.027124971E-1
4.992481397E0,2.062499989E-3,-5.499999970E-4,1.016125008E-1
4.994981934E0,2.062499989E-3,-1.649999991E-3,1.016125008E-1
4.997482320E0,9.624999948E-4,5.499999970E-4,1.005124971E-1
4.999982857E0,9.624999948E-4,-5.499999970E-4,9.638749808E-2
5.002483233E0,3.162499983E-3,-5.499999970E-4,9.528750181E-2
5.004983770E0,2.062499989E-3,-5.499999970E-4,9.418749809E-2
5.007484157E0,2.062499989E-3,1.649999991E-3,9.102500230E-2
5.009984693E0,9.624999948E-4,-1.649999991E-3,8.882500231E-2
5.012485080E0,3.162499983E-3,1.649999991E-3,8.676250279E-2
5.014985602E0,2.062499989E-3,-5.499999970E-4,8.249999583E-2
5.017485989E0,2.062499989E-3,5.499999970E-4,8.030000329E-2
5.019986525E0,9.624999948E-4,1.649999991E-3,7.713750005E-2
5.022486912E0,3.162499983E-3,5.499999970E-4,7.191249728E-2
5.024987452E0,3.162499983E-3,5.499999970E-4,6.971249729E-2
5.027487762E0,2.062499989E-3,5.499999970E-4,6.435000151E-2
5.029988145E0,2.062499989E-3,1.649999991E-3,6.008749828E-2
5.032488683E0,2.062499989E-3,2.612499986E-3,5.486249924E-2
5.034989060E0,9.624999948E-4,5.499999970E-4,5.059999973E-2
5.037489596E0,9.624999948E-4,2.612499986E-3,4.413750023E-2
5.039989983E0,2.062499989E-3,5.499999970E-4,3.891250119E-2
5.042490519E0,-1.099999994E-3,2.612499986E-3,3.244999796E-2
5.044990906E0,9.624999948E-4,2.612499986E-3,2.708750032E-2
5.047491456E0,-1.374999993E-4,2.612499986E-3,2.186249942E-2
5.049991766E0,-1.374999993E-4,3.712499980E-3,1.759999990E-2
5.052492149E0,9.624999948E-4,3.712499980E-3,1.113750041E-2
5.054992687E0,9.624999948E-4,3.712499980E-3,4.812499974E-3
5.057493074E0,2.062499989E-3,2.612499986E-3,5.499999970E-4
5.059993610E0,9.624999948E-4,3.712499980E-3,-4.812499974E-3
