"Time (s)","Gyroscope x (rad/s)","Gyroscope y (rad/s)","Gyroscope z (rad/s)"
1.280997940E-1,9.624999948E-4,1.649999991E-3,-1.003750041E-2
1.306001040E-1,-1.374999993E-4,-1.649999991E-3,-1.429999992E-2
1.331006400E-1,9.624999948E-4,5.499999970E-4,-1.113750041E-2
1.356009690E-1,9.624999948E-4,-5.499999970E-4,-1.333750039E-2
1.381013520E-1,9.624999948E-4,5.499999970E-4,-1.333750039E-2
1.406016610E-1,-1.374999993E-4,5.499999970E-4,-1.429999992E-2
1.431019690E-1,9.624999948E-4,-5.499999970E-4,-1.429999992E-2
1.456025060E-1,9.624999948E-4,-5.499999970E-4,-1.539999992E-2
1.481028150E-1,2.062499989E-3,5.499999970E-4,-1.539999992E-2
1.506031980E-1,9.624999948E-4,5.499999970E-4,-1.429999992E-2
1.531035080E-1,9.624999948E-4,-5.499999970E-4,-1.539999992E-2
1.556040440E-1,-1.099999994E-3,2.612499986E-3,-1.649999991E-2
1.581043680E-1,9.624999948E-4,-5.499999970E-4,-1.649999991E-2
1.606046750E-1,9.624999948E-4,-5.499999970E-4,-1.759999990E-2
1.631049830E-1,-1.374999993E-4,-1.649999991E-3,-1.539999992E-2
1.656053660E-1,2.062499989E-3,5.499999970E-4,-1.856249943E-2
1.681056800E-1,2.062499989E-3,-5.499999970E-4,-1.649999991E-2
1.706062170E-1,-1.374999993E-4,5.499999970E-4,-1.759999990E-2
1.731065270E-1,-1.374999993E-4,5.499999970E-4,-1.539999992E-2
1.756069090E-1,9.624999948E-4,5.499999970E-4,-1.759999990E-2
1.781072480E-1,2.062499989E-3,-5.499999970E-4,-1.539999992E-2
1.806075560E-1,9.624999948E-4,5.499999970E-4,-1.649999991E-2
1.831080920E-1,9.624999948E-4,1.649999991E-3,-1.429999992E-2
1.856084020E-1,-1.374999993E-4,-5.499999970E-4,-1.429999992E-2
1.881087840E-1,-1.099999994E-3,5.499999970E-4,-1.429999992E-2
1.906091130E-1,-1.374999993E-4,-5.499999970E-4,-1.333750039E-2
1.931096500E-1,-1.099999994E-3,5.499999970E-4,-1.539999992E-2
1.956099590E-1,9.624999948E-4,-5.499999970E-4,-1.223750040E-2
1.981103420E-1,2.062499989E-3,5.499999970E-4,-1.333750039E-2
2.006106520E-1,2.062499989E-3,1.649999991E-3,-1.003750041E-2
2.031109590E-1,-1.099999994E-3,5.499999970E-4,-1.223750040E-2
2.056112670E-1,-1.374999993E-4,-5.499999970E-4,-1.003750041E-2
2.081118030E-1,9.624999948E-4,5.499999970E-4,-1.223750040E-2
2.106121180E-1,9.624999948E-4,-5.499999970E-4,-1.113750041E-2
2.131125010E-1,9.624999948E-4,5.499999970E-4,-9.074999951E-3
2.156128110E-1,2.062499989E-3,-5.499999970E-4,-6.874999963E-3
2.181133470E-1,-1.374999993E-4,5.499999970E-4,-7.974999957E-3
2.206136570E-1,9.624999948E-4,5.499999970E-4,-5.774999969E-3
2.231139430E-1,-1.374999993E-4,-5.499999970E-4,-4.812499974E-3
2.256143260E-1,-1.374999993E-4,1.649999991E-3,-2.612499986E-3
2.281146360E-1,-1.099999994E-3,-5.499999970E-4,-2.612499986E-3
2.306151720E-1,-1.374999993E-4,-5.499999970E-4,-5.499999970E-4
2.331154680E-1,-1.374999993E-4,1.649999991E-3,-1.649999991E-3
2.356158500E-1,-1.374999993E-4,5.499999970E-4,5.499999970E-4
2.381161600E-1,-1.374999993E-4,5.499999970E-4,1.649999991E-3
2.406166970E-1,9.624999948E-4,5.499999970E-4,2.612499986E-3
2.431169920E-1,2.062499989E-3,5.499999970E-4,2.612499986E-3
2.456173000E-1,9.624999948E-4,1.649999991E-3,3.712499980E-3
2.481176830E-1,-1.374999993E-4,5.499999970E-4,5.912499968E-3
2.506179920E-1,9.624999948E-4,-5.499999970E-4,3.712499980E-3
2.531182610E-1,9.624999948E-4,5.499999970E-4,5.912499968E-3
2.556187980E-1,-1.374999993E-4,5.499999970E-4,7.974999957E-3
2.581191070E-1,-1.099999994E-3,-1.649999991E-3,7.974999957E-3
2.606194900E-1,9.624999948E-4,1.649999991E-3,7.974999957E-3
2.631197910E-1,9.624999948E-4,1.649999991E-3,9.074999951E-3
2.656203270E-1,9.624999948E-4,5.499999970E-4,1.017499994E-2
2.681206370E-1,-1.099999994E-3,5.499999970E-4,1.113750041E-2
2.706209440E-1,-1.374999993E-4,-5.499999970E-4,1.333750039E-2
2.731213170E-1,-1.374999993E-4,1.649999991E-3,1.333750039E-2
2.756216270E-1,9.624999948E-4,-5.499999970E-4,1.333750039E-2
2.781221630E-1,-1.374999993E-4,5.499999970E-4,1.443750039E-2
2.806224730E-1,-1.374999993E-4,1.649999991E-3,1.443750039E-2
2.831228270E-1,-1.374999993E-4,1.649999991E-3,1.443750039E-2
2.856231360E-1,-1.374999993E-4,1.649999991E-3,1.539999992E-2
2.881234440E-1,-1.374999993E-4,5.499999970E-4,1.539999992E-2
2.906239800E-1,-1.374999993E-4,-5.499999970E-4,1.539999992E-2
2.931242760E-1,-1.099999994E-3,5.499999970E-4,1.759999990E-2
2.956246590E-1,-1.099999994E-3,5.499999970E-4,1.539999992E-2
2.981249680E-1,-1.374999993E-4,5.499999970E-4,1.649999991E-2
3.006255050E-1,-1.374999993E-4,5.499999970E-4,1.443750039E-2
3.031257860E-1,-1.374999993E-4,5.499999970E-4,1.539999992E-2
3.056260930E-1,-1.374999993E-4,5.499999970E-4,1.649999991E-2
3.081264010E-1,-1.099999994E-3,5.499999970E-4,1.649999991E-2
3.106267840E-1,-1.374999993E-4,3.712499980E-3,1.649999991E-2
3.131270930E-1,-1.374999993E-4,5.499999970E-4,1.649999991E-2
3.156276200E-1,-1.374999993E-4,-5.499999970E-4,1.539999992E-2
3.181279290E-1,-1.374999993E-4,5.499999970E-4,1.649999991E-2
3.206283120E-1,-1.099999994E-3,5.499999970E-4,1.539999992E-2
3.231286220E-1,-1.374999993E-4,-5.499999970E-4,1.649999991E-2
3.256288950E-1,9.624999948E-4,5.499999970E-4,1.539999992E-2
3.281294320E-1,-1.374999993E-4,-5.499999970E-4,1.333750039E-2
3.306297420E-1,-1.374999993E-4,5.499999970E-4,1.539999992E-2
3.331301240E-1,-1.374999993E-4,5.499999970E-4,1.333750039E-2
3.356304300E-1,-1.374999993E-4,5.499999970E-4,1.443750039E-2
3.381309660E-1,-1.374999993E-4,-5.499999970E-4,1.017499994E-2
3.406312760E-1,-1.374999993E-4,5.499999970E-4,1.223750040E-2
3.431316590E-1,-1.099999994E-3,-5.499999970E-4,1.113750041E-2
3.456319340E-1,-1.099999994E-3,1.649999991E-3,9.074999951E-3
3.481322420E-1,-1.099999994E-3,-5.499999970E-4,7.974999957E-3
3.506327790E-1,-1.099999994E-3,1.649999991E-3,6.874999963E-3
3.531330880E-1,-1.374999993E-4,5.499999970E-4,4.812499974E-3
3.556334710E-1,-1.374999993E-4,1.649999991E-3,6.874999963E-3
3.581337580E-1,2.062499989E-3,5.499999970E-4,3.712499980E-3
3.606340650E-1,-1.374999993E-4,5.499999970E-4,5.912499968E-3
3.631346020E-1,-1.099999994E-3,1.649999991E-3,3.712499980E-3
3.656349110E-1,-1.374999993E-4,-1.649999991E-3,4.812499974E-3
3.681352890E-1,-1.374999993E-4,1.649999991E-3,1.649999991E-3
3.706355990E-1,-1.374999993E-4,-5.499999970E-4,1.649999991E-3
3.731359070E-1,-1.374999993E-4,1.649999991E-3,1.649999991E-3
3.756364430E-1,2.062499989E-3,-5.499999970E-4,-5.499999970E-4
3.781367290E-1,-1.099999994E-3,-5.499999970E-4,-1.649999991E-3
3.806371110E-1,9.624999948E-4,5.499999970E-4,-1.649999991E-3
3.831374210E-1,9.624999948E-4,5.499999970E-4,-2.612499986E-3
3.856379570E-1,9.624999948E-4,-5.499999970E-4,-3.712499980E-3
3.881382670E-1,9.624999948E-4,5.499999970E-4,-4.812499974E-3
3.906385640E-1,-1.374999993E-4,-2.612499986E-3,-6.874999963E-3
3.931389460E-1,9.624999948E-4,-5.499999970E-4,-6.874999963E-3
3.956392560E-1,9.624999948E-4,-5.499999970E-4,-9.074999951E-3
3.981397930E-1,-1.374999993E-4,-5.499999970E-4,-7.974999957E-3
4.006400930E-1,-1.374999993E-4,-5.499999970E-4,-1.003750041E-2
4.031404760E-1,9.624999948E-4,-5.499999970E-4,-1.223750040E-2
4.056407860E-1,9.624999948E-4,5.499999970E-4,-1.113750041E-2
4.081413220E-1,9.624999948E-4,5.499999970E-4,-1.003750041E-2
4.106416410E-1,-1.374999993E-4,5.499999970E-4,-1.333750039E-2
4.131419490E-1,9.624999948E-4,5.499999970E-4,-1.333750039E-2
4.156423310E-1,-1.374999993E-4,5.499999970E-4,-1.333750039E-2
4.181426410E-1,2.062499989E-3,1.649999991E-3,-1.539999992E-2
4.206431920E-1,9.624999948E-4,-1.649999991E-3,-1.429999992E-2
4.231435020E-1,2.062499989E-3,5.499999970E-4,-1.333750039E-2
4.256438850E-1,-1.374999993E-4,1.649999991E-3,-1.649999991E-2
4.281441940E-1,9.624999948E-4,-5.499999970E-4,-1.539999992E-2
4.306447310E-1,2.062499989E-3,-5.499999970E-4,-1.649999991E-2
4.331447950E-1,2.062499989E-3,5.499999970E-4,-1.539999992E-2
4.356453310E-1,-1.374999993E-4,5.499999970E-4,-1.649999991E-2
4.381456410E-1,9.624999948E-4,-5.499999970E-4,-1.759999990E-2
4.406460240E-1,-1.374999993E-4,5.499999970E-4,-1.759999990E-2
4.431463230E-1,2.062499989E-3,-5.499999970E-4,-1.759999990E-2
4.456468600E-1,-1.374999993E-4,1.649999991E-3,-1.856249943E-2
4.481471690E-1,9.624999948E-4,-5.499999970E-4,-1.856249943E-2
4.506474770E-1,9.624999948E-4,5.499999970E-4,-1.649999991E-2
4.531478600E-1,9.624999948E-4,-5.499999970E-4,-1.966249943E-2
4.556481690E-1,9.624999948E-4,5.499999970E-4,-1.539999992E-2
4.581487060E-1,-1.374999993E-4,-5.499999970E-4,-1.539999992E-2
4.606490160E-1,9.624999948E-4,-5.499999970E-4,-1.429999992E-2
4.631493740E-1,9.624999948E-4,5.499999970E-4,-1.759999990E-2
4.656496840E-1,-1.374999993E-4,5.499999970E-4,-1.539999992E-2
4.681499920E-1,9.624999948E-4,5.499999970E-4,-1.333750039E-2
4.706505280E-1,-1.374999993E-4,5.499999970E-4,-1.333750039E-2
4.731509150E-1,9.624999948E-4,-5.499999970E-4,-1.429999992E-2
4.756511500E-1,9.624999948E-4,5.499999970E-4,-1.223750040E-2
4.781515330E-1,9.624999948E-4,-5.499999970E-4,-1.333750039E-2
4.806518430E-1,9.624999948E-4,5.499999970E-4,-1.223750040E-2
4.831523790E-1,9.624999948E-4,-5.499999970E-4,-1.223750040E-2
4.856527040E-1,9.624999948E-4,-5.499999970E-4,-1.113750041E-2
4.881530870E-1,2.062499989E-3,-1.649999991E-3,-1.003750041E-2
4.906533960E-1,9.624999948E-4,5.499999970E-4,-9.074999951E-3
4.931539330E-1,-1.374999993E-4,-5.499999970E-4,-7.974999957E-3
4.956542460E-1,-1.374999993E-4,1.649999991E-3,-9.074999951E-3
4.981545540E-1,9.624999948E-4,-5.499999970E-4,-7.974999957E-3
5.006549370E-1,9.624999948E-4,5.499999970E-4,-5.774999969E-3
5.031552460E-1,9.624999948E-4,5.499999970E-4,-5.774999969E-3
5.056557690E-1,-1.374999993E-4,-1.649999991E-3,-3.712499980E-3
5.081560790E-1,-1.374999993E-4,-5.499999970E-4,-2.612499986E-3
5.106564610E-1,9.624999948E-4,5.499999970E-4,-5.499999970E-4
5.131567710E-1,9.624999948E-4,1.649999991E-3,-5.499999970E-4
5.156570930E-1,9.624999948E-4,5.499999970E-4,5.499999970E-4
5.181574000E-1,2.062499989E-3,5.499999970E-4,1.649999991E-3
5.206579370E-1,-1.374999993E-4,-5.499999970E-4,2.612499986E-3
5.231582460E-1,-1.374999993E-4,-5.499999970E-4,3.712499980E-3
5.256586290E-1,-1.374999993E-4,-5.499999970E-4,4.812499974E-3
5.281589440E-1,9.624999948E-4,-5.499999970E-4,4.812499974E-3
5.306594800E-1,9.624999948E-4,5.499999970E-4,4.812499974E-3
5.331597900E-1,9.624999948E-4,1.649999991E-3,5.912499968E-3
5.356601730E-1,-1.374999993E-4,-1.649999991E-3,7.974999957E-3
5.381604820E-1,-1.374999993E-4,5.499999970E-4,6.874999963E-3
5.406607900E-1,-1.374999993E-4,5.499999970E-4,9.074999951E-3
5.431613260E-1,2.062499989E-3,5.499999970E-4,7.974999957E-3
5.456616360E-1,9.624999948E-4,-1.649999991E-3,1.017499994E-2
5.481620330E-1,9.624999948E-4,5.499999970E-4,1.017499994E-2
5.506623420E-1,9.624999948E-4,-5.499999970E-4,1.017499994E-2
5.531628790E-1,-1.374999993E-4,-5.499999970E-4,1.333750039E-2
5.556631890E-1,-1.374999993E-4,-5.499999970E-4,1.223750040E-2
5.581635670E-1,9.624999948E-4,1.649999991E-3,1.443750039E-2
5.606638770E-1,2.062499989E-3,-5.499999970E-4,1.443750039E-2
5.631641850E-1,9.624999948E-4,-5.499999970E-4,1.443750039E-2
5.656644920E-1,-1.374999993E-4,5.499999970E-4,1.539999992E-2
5.681650290E-1,9.624999948E-4,1.649999991E-3,1.443750039E-2
5.706653340E-1,-1.374999993E-4,-1.649999991E-3,1.649999991E-2
5.731657160E-1,9.624999948E-4,5.499999970E-4,1.443750039E-2
5.756660260E-1,9.624999948E-4,5.499999970E-4,1.443750039E-2
5.781665620E-1,9.624999948E-4,5.499999970E-4,1.649999991E-2
5.806668570E-1,9.624999948E-4,-5.499999970E-4,1.539999992E-2
5.831671650E-1,9.624999948E-4,-5.499999970E-4,1.649999991E-2
5.856675470E-1,-1.374999993E-4,5.499999970E-4,1.443750039E-2
5.881678570E-1,9.624999948E-4,1.649999991E-3,1.649999991E-2
5.906683980E-1,-1.099999994E-3,5.499999970E-4,1.539999992E-2
5.931687080E-1,-1.374999993E-4,5.499999970E-4,1.539999992E-2
5.956690910E-1,-1.099999994E-3,-5.499999970E-4,1.113750041E-2
5.981694010E-1,9.624999948E-4,-1.649999991E-3,1.649999991E-2
6.006699370E-1,-1.374999993E-4,1.649999991E-3,1.539999992E-2
6.031702470E-1,2.062499989E-3,1.649999991E-3,1.443750039E-2
6.056705540E-1,9.624999948E-4,-5.499999970E-4,1.333750039E-2
6.081709370E-1,-1.374999993E-4,-5.499999970E-4,1.539999992E-2
6.106712470E-1,-1.374999993E-4,-5.499999970E-4,1.443750039E-2
6.131717830E-1,-1.374999993E-4,-5.499999970E-4,1.333750039E-2
6.156720930E-1,-1.099999994E-3,1.649999991E-3,1.333750039E-2
6.181724750E-1,-1.374999993E-4,1.649999991E-3,1.113750041E-2
6.206727850E-1,-1.374999993E-4,5.499999970E-4,1.223750040E-2
6.231733220E-1,2.062499989E-3,5.499999970E-4,1.333750039E-2
6.256736310E-1,9.624999948E-4,5.499999970E-4,9.074999951E-3
6.281739390E-1,9.624999948E-4,5.499999970E-4,1.113750041E-2
6.306742470E-1,9.624999948E-4,-5.499999970E-4,7.974999957E-3
6.331746290E-1,9.624999948E-4,5.499999970E-4,7.974999957E-3
6.356749580E-1,9.624999948E-4,5.499999970E-4,5.912499968E-3
6.381754950E-1,9.624999948E-4,5.499999970E-4,4.812499974E-3
6.406758040E-1,-1.374999993E-4,1.649999991E-3,3.712499980E-3
6.431761870E-1,-1.374999993E-4,-5.499999970E-4,2.612499986E-3
6.456764830E-1,9.624999948E-4,-5.499999970E-4,2.612499986E-3
6.481767900E-1,-1.374999993E-4,5.499999970E-4,2.612499986E-3
6.506773270E-1,9.624999948E-4,5.499999970E-4,1.649999991E-3
6.531776360E-1,9.624999948E-4,5.499999970E-4,5.499999970E-4
6.556779950E-1,9.624999948E-4,5.499999970E-4,-5.499999970E-4
6.581783050E-1,2.062499989E-3,5.499999970E-4,-5.499999970E-4
6.606788410E-1,-1.374999993E-4,5.499999970E-4,-2.612499986E-3
6.631791510E-1,-1.374999993E-4,5.499999970E-4,-2.612499986E-3
6.656795390E-1,-1.374999993E-4,-5.499999970E-4,-4.812499974E-3
6.681798480E-1,-1.374999993E-4,5.499999970E-4,-5.774999969E-3
6.706801560E-1,9.624999948E-4,-1.649999991E-3,-4.812499974E-3
6.731804640E-1,2.062499989E-3,1.649999991E-3,-5.774999969E-3
6.756810000E-1,9.624999948E-4,5.499999970E-4,-5.774999969E-3
6.781813100E-1,2.062499989E-3,5.499999970E-4,-9.074999951E-3
6.806816920E-1,-1.099999994E-3,-5.499999970E-4,-9.074999951E-3
6.831820020E-1,9.624999948E-4,2.612499986E-3,-1.113750041E-2
6.856825390E-1,-1.099999994E-3,-5.499999970E-4,-1.113750041E-2
6.881828520E-1,-1.099999994E-3,5.499999970E-4,-1.223750040E-2
6.906831600E-1,9.624999948E-4,5.499999970E-4,-1.333750039E-2
6.931835430E-1,9.624999948E-4,5.499999970E-4,-1.429999992E-2
6.956838520E-1,9.624999948E-4,-5.499999970E-4,-1.429999992E-2
6.981843990E-1,-1.374999993E-4,5.499999970E-4,-1.333750039E-2
7.006847080E-1,2.062499989E-3,1.649999991E-3,-1.333750039E-2
7.031850910E-1,9.624999948E-4,-5.499999970E-4,-1.539999992E-2
7.056854010E-1,-1.374999993E-4,5.499999970E-4,-1.539999992E-2
7.081859420E-1,-1.374999993E-4,-5.499999970E-4,-1.539999992E-2
7.106862520E-1,9.624999948E-4,-5.499999970E-4,-1.429999992E-2
7.131865600E-1,9.624999948E-4,-1.649999991E-3,-1.539999992E-2
7.156869420E-1,-1.374999993E-4,1.649999991E-3,-1.649999991E-2
7.181872280E-1,-1.374999993E-4,-5.499999970E-4,-1.649999991E-2
7.206877640E-1,-1.374999993E-4,1.649999991E-3,-1.429999992E-2
7.231880740E-1,2.062499989E-3,-5.499999970E-4,-1.649999991E-2
7.256883820E-1,9.624999948E-4,1.649999991E-3,-1.966249943E-2
7.281887680E-1,-1.374999993E-4,1.649999991E-3,-1.966249943E-2
7.306890780E-1,-1.374999993E-4,-5.499999970E-4,-1.539999992E-2
7.331896150E-1,-1.374999993E-4,5.499999970E-4,-1.759999990E-2
7.356899240E-1,2.062499989E-3,-5.499999970E-4,-1.856249943E-2
7.381902280E-1,2.062499989E-3,1.649999991E-3,-1.429999992E-2
7.406906110E-1,-1.374999993E-4,5.499999970E-4,-1.539999992E-2
7.431909200E-1,9.624999948E-4,1.649999991E-3,-1.539999992E-2
7.456914570E-1,2.062499989E-3,-5.499999970E-4,-1.539999992E-2
7.481917750E-1,-1.374999993E-4,1.649999991E-3,-1.429999992E-2
7.506921580E-1,9.624999948E-4,-5.499999970E-4,-1.333750039E-2
7.531924680E-1,-1.374999993E-4,-5.499999970E-4,-1.333750039E-2
7.556927750E-1,-1.099999994E-3,-5.499999970E-4,-1.333750039E-2
7.581930830E-1,9.624999948E-4,5.499999970E-4,-1.003750041E-2
7.606936150E-1,9.624999948E-4,1.649999991E-3,-1.113750041E-2
7.631939240E-1,9.624999948E-4,5.499999970E-4,-1.003750041E-2
7.656943070E-1,3.162499983E-3,-5.499999970E-4,-1.003750041E-2
7.681948450E-1,2.062499989E-3,1.649999991E-3,-9.074999951E-3
7.706951360E-1,9.624999948E-4,-5.499999970E-4,-9.074999951E-3
7.731954440E-1,9.624999948E-4,1.649999991E-3,-6.874999963E-3
7.756958260E-1,9.624999948E-4,5.499999970E-4,-7.974999957E-3
7.781961360E-1,-1.099999994E-3,-5.499999970E-4,-6.874999963E-3
7.806966830E-1,2.062499989E-3,5.499999970E-4,-5.774999969E-3
7.831969920E-1,-1.374999993E-4,5.499999970E-4,-4.812499974E-3
7.856973750E-1,-1.374999993E-4,5.499999970E-4,-4.812499974E-3
7.881976850E-1,-1.374999993E-4,-5.499999970E-4,-3.712499980E-3
7.906980010E-1,9.624999948E-4,5.499999970E-4,-3.712499980E-3
7.931985380E-1,9.624999948E-4,-5.499999970E-4,5.499999970E-4
7.956988480E-1,2.062499989E-3,-5.499999970E-4,-1.649999991E-3
7.981992300E-1,2.062499989E-3,-5.499999970E-4,1.649999991E-3
8.006995210E-1,9.624999948E-4,1.649999991E-3,5.499999970E-4
8.031998290E-1,9.624999948E-4,-5.499999970E-4,3.712499980E-3
8.057003650E-1,-1.374999993E-4,5.499999970E-4,4.812499974E-3
8.082006750E-1,-1.374999993E-4,-5.499999970E-4,3.712499980E-3
8.107010570E-1,-1.374999993E-4,5.499999970E-4,5.912499968E-3
8.132013720E-1,-1.374999993E-4,5.499999970E-4,5.912499968E-3
8.157016800E-1,-1.374999993E-4,1.649999991E-3,7.974999957E-3
8.182022160E-1,9.624999948E-4,-5.499999970E-4,7.974999957E-3
8.207025260E-1,-1.099999994E-3,1.649999991E-3,7.974999957E-3
8.232028190E-1,-1.374999993E-4,5.499999970E-4,1.017499994E-2
8.257032010E-1,9.624999948E-4,1.649999991E-3,9.074999951E-3
8.282035110E-1,9.624999948E-4,5.499999970E-4,9.074999951E-3
8.307040470E-1,-1.374999993E-4,-5.499999970E-4,1.223750040E-2
8.332043620E-1,-1.099999994E-3,1.649999991E-3,1.113750041E-2
8.357047450E-1,-1.099999994E-3,5.499999970E-4,1.223750040E-2
8.382050540E-1,-1.099999994E-3,5.499999970E-4,1.113750041E-2
8.407055910E-1,-1.099999994E-3,5.499999970E-4,1.333750039E-2
8.432059010E-1,-1.374999993E-4,5.499999970E-4,1.333750039E-2
8.457062030E-1,9.624999948E-4,5.499999970E-4,1.443750039E-2
8.482065860E-1,9.624999948E-4,5.499999970E-4,1.539999992E-2
8.507068960E-1,9.624999948E-4,5.499999970E-4,1.443750039E-2
8.532074320E-1,-1.374999993E-4,5.499999970E-4,1.649999991E-2
8.557077420E-1,2.062499989E-3,-5.499999970E-4,1.649999991E-2
8.582081240E-1,-1.374999993E-4,5.499999970E-4,1.649999991E-2
8.607084340E-1,-1.374999993E-4,-1.649999991E-3,1.759999990E-2
8.632089710E-1,-1.374999993E-4,5.499999970E-4,1.649999991E-2
8.657092710E-1,-1.374999993E-4,5.499999970E-4,1.759999990E-2
8.682095790E-1,9.624999948E-4,5.499999970E-4,1.649999991E-2
8.707099620E-1,9.624999948E-4,-5.499999970E-4,1.649999991E-2
8.732102710E-1,9.624999948E-4,1.649999991E-3,1.649999991E-2
8.757107790E-1,9.624999948E-4,1.649999991E-3,1.443750039E-2
8.782110880E-1,-1.374999993E-4,5.499999970E-4,1.443750039E-2
8.807113960E-1,-1.374999993E-4,-5.499999970E-4,1.443750039E-2
8.832117790E-1,-1.374999993E-4,-5.499999970E-4,1.223750040E-2
8.857120930E-1,-1.099999994E-3,1.649999991E-3,1.443750039E-2
8.882126300E-1,-2.199999988E-3,-5.499999970E-4,1.443750039E-2
8.907129400E-1,-1.374999993E-4,5.499999970E-4,1.333750039E-2
8.932132470E-1,-1.099999994E-3,5.499999970E-4,1.443750039E-2
8.957136300E-1,-1.374999993E-4,1.649999991E-3,1.333750039E-2
8.982139450E-1,-1.374999993E-4,-5.499999970E-4,1.333750039E-2
9.007144810E-1,-1.099999994E-3,1.649999991E-3,1.223750040E-2
9.032147910E-1,9.624999948E-4,1.649999991E-3,1.333750039E-2
9.057151730E-1,2.062499989E-3,5.499999970E-4,1.017499994E-2
9.082154980E-1,9.624999948E-4,5.499999970E-4,1.017499994E-2
9.107158060E-1,-1.374999993E-4,5.499999970E-4,9.074999951E-3
9.132163420E-1,-1.374999993E-4,-1.649999991E-3,7.974999957E-3
9.157166520E-1,-1.374999993E-4,5.499999970E-4,6.874999963E-3
9.182170350E-1,-1.374999993E-4,-1.649999991E-3,6.874999963E-3
9.207173290E-1,9.624999948E-4,1.649999991E-3,4.812499974E-3
9.232178660E-1,2.062499989E-3,-5.499999970E-4,4.812499974E-3
9.257181750E-1,9.624999948E-4,-5.499999970E-4,3.712499980E-3
9.282185580E-1,-1.374999993E-4,-5.499999970E-4,-5.499999970E-4
9.307188590E-1,-1.374999993E-4,5.499999970E-4,5.499999970E-4
9.332191660E-1,9.624999948E-4,5.499999970E-4,1.649999991E-3
9.357194740E-1,9.624999948E-4,5.499999970E-4,-5.499999970E-4
9.382200110E-1,2.062499989E-3,-5.499999970E-4,-1.649999991E-3
9.407203200E-1,-1.374999993E-4,5.499999970E-4,-2.612499986E-3
9.432207410E-1,9.624999948E-4,-5.499999970E-4,-4.812499974E-3
9.457210510E-1,9.624999948E-4,-5.499999970E-4,-2.612499986E-3
9.482215870E-1,9.624999948E-4,1.649999991E-3,-4.812499974E-3
9.507218970E-1,9.624999948E-4,-5.499999970E-4,-6.874999963E-3
9.532222550E-1,-1.099999994E-3,1.649999991E-3,-5.774999969E-3
9.557225650E-1,-1.374999993E-4,-5.499999970E-4,-7.974999957E-3
9.582228730E-1,9.624999948E-4,5.499999970E-4,-7.974999957E-3
9.607234090E-1,-1.374999993E-4,-5.499999970E-4,-1.003750041E-2
9.632237190E-1,2.062499989E-3,5.499999970E-4,-1.113750041E-2
9.657241020E-1,-1.374999993E-4,-5.499999970E-4,-1.113750041E-2
9.682244110E-1,-1.374999993E-4,5.499999970E-4,-1.113750041E-2
9.707247190E-1,-1.374999993E-4,5.499999970E-4,-1.223750040E-2
9.732252550E-1,-1.374999993E-4,5.499999970E-4,-1.429999992E-2
9.757255840E-1,9.624999948E-4,-5.499999970E-4,-1.429999992E-2
9.782259670E-1,-1.374999993E-4,-5.499999970E-4,-1.429999992E-2
9.807262760E-1,9.624999948E-4,5.499999970E-4,-1.539999992E-2
9.832268130E-1,9.624999948E-4,1.649999991E-3,-1.539999992E-2
9.857271330E-1,9.624999948E-4,5.499999970E-4,-1.429999992E-2
9.882274400E-1,9.624999948E-4,-5.499999970E-4,-1.649999991E-2
9.907278230E-1,-1.374999993E-4,1.649999991E-3,-1.649999991E-2
9.932281330E-1,9.624999948E-4,-1.649999991E-3,-1.649999991E-2
9.957286830E-1,9.624999948E-4,1.649999991E-3,-1.649999991E-2
9.982289930E-1,9.624999948E-4,5.499999970E-4,-1.539999992E-2
1.000729301E0,-1.374999993E-4,5.499999970E-4,-1.539999992E-2
1.003229683E0,-1.374999993E-4,5.499999970E-4,-1.649999991E-2
1.005729993E0,3.162499983E-3,-5.499999970E-4,-1.539999992E-2
1.008230529E0,-1.374999993E-4,5.499999970E-4,-1.649999991E-2
1.010730839E0,-1.374999993E-4,5.499999970E-4,-1.759999990E-2
1.013231222E0,9.624999948E-4,-5.499999970E-4,-1.649999991E-2
1.015731545E0,9.624999948E-4,5.499999970E-4,-1.759999990E-2
1.018232082E0,9.624999948E-4,5.499999970E-4,-1.429999992E-2
1.020732392E0,-1.099999994E-3,1.649999991E-3,-1.759999990E-2
1.023232699E0,9.624999948E-4,-5.499999970E-4,-1.759999990E-2
1.025733082E0,9.624999948E-4,-5.499999970E-4,-1.539999992E-2
1.028233388E0,9.624999948E-4,5.499999970E-4,-1.649999991E-2
1.030733924E0,9.624999948E-4,-5.499999970E-4,-1.429999992E-2
1.033234234E0,-1.374999993E-4,1.649999991E-3,-1.333750039E-2
1.035734541E0,9.624999948E-4,5.499999970E-4,-1.223750040E-2
1.038234919E0,9.624999948E-4,-5.499999970E-4,-1.223750040E-2
1.040735229E0,-1.099999994E-3,-5.499999970E-4,-1.223750040E-2
1.043235536E0,9.624999948E-4,5.499999970E-4,-1.113750041E-2
1.045736073E0,-1.374999993E-4,5.499999970E-4,-1.003750041E-2
1.048236383E0,9.624999948E-4,-5.499999970E-4,-9.074999951E-3
1.050736807E0,-1.374999993E-4,2.612499986E-3,-9.074999951E-3
1.053237117E0,2.062499989E-3,-5.499999970E-4,-7.974999957E-3
1.055737653E0,9.624999948E-4,-5.499999970E-4,-6.874999963E-3
1.058237963E0,9.624999948E-4,5.499999970E-4,-6.874999963E-3
1.060738346E0,2.062499989E-3,-5.499999970E-4,-5.774999969E-3
1.063238655E0,-1.374999993E-4,5.499999970E-4,-6.874999963E-3
1.065738963E0,2.062499989E-3,-5.499999970E-4,-4.812499974E-3
1.068239500E0,9.624999948E-4,5.499999970E-4,-3.712499980E-3
1.070739809E0,9.624999948E-4,-1.649999991E-3,-2.612499986E-3
1.073240203E0,-1.374999993E-4,-5.499999970E-4,-1.649999991E-3
1.075740513E0,9.624999948E-4,5.499999970E-4,-5.499999970E-4
1.078241049E0,2.062499989E-3,-5.499999970E-4,-5.499999970E-4
1.080741359E0,-1.099999994E-3,5.499999970E-4,3.712499980E-3
1.083241741E0,-1.099999994E-3,5.499999970E-4,3.712499980E-3
1.085742051E0,-1.374999993E-4,-5.499999970E-4,4.812499974E-3
1.088242588E0,9.624999948E-4,1.649999991E-3,4.812499974E-3
1.090742666E0,-1.374999993E-4,5.499999970E-4,6.874999963E-3
1.093243203E0,9.624999948E-4,-5.499999970E-4,7.974999957E-3
1.095743513E0,9.624999948E-4,-5.499999970E-4,9.074999951E-3
1.098243895E0,9.624999948E-4,5.499999970E-4,9.074999951E-3
1.100744205E0,9.624999948E-4,5.499999970E-4,1.017499994E-2
1.103244750E0,2.062499989E-3,-5.499999970E-4,1.113750041E-2
1.105745060E0,-1.374999993E-4,5.499999970E-4,1.017499994E-2
1.108245443E0,-1.099999994E-3,1.649999991E-3,1.017499994E-2
1.110745752E0,-1.374999993E-4,5.499999970E-4,1.017499994E-2
1.113246027E0,9.624999948E-4,-5.499999970E-4,1.113750041E-2
1.115746564E0,-1.374999993E-4,1.649999991E-3,1.113750041E-2
1.118246873E0,-1.374999993E-4,5.499999970E-4,1.113750041E-2
1.120747256E0,9.624999948E-4,1.649999991E-3,1.443750039E-2
1.123247566E0,9.624999948E-4,5.499999970E-4,1.333750039E-2
1.125748111E0,2.062499989E-3,5.499999970E-4,1.443750039E-2
1.128248421E0,-1.374999993E-4,2.612499986E-3,1.539999992E-2
1.130748803E0,9.624999948E-4,5.499999970E-4,1.443750039E-2
1.133249036E0,-1.099999994E-3,5.499999970E-4,1.759999990E-2
1.135749410E0,-1.374999993E-4,5.499999970E-4,1.649999991E-2
1.138249719E0,-1.099999994E-3,5.499999970E-4,1.759999990E-2
1.140750256E0,-1.374999993E-4,5.499999970E-4,1.759999990E-2
1.143250566E0,-1.374999993E-4,-5.499999970E-4,1.649999991E-2
1.145750938E0,-1.374999993E-4,5.499999970E-4,1.539999992E-2
1.148251248E0,-1.374999993E-4,5.499999970E-4,1.759999990E-2
1.150751784E0,-1.374999993E-4,5.499999970E-4,1.649999991E-2
1.153252094E0,-1.099999994E-3,5.499999970E-4,1.539999992E-2
1.155752477E0,9.624999948E-4,5.499999970E-4,1.539999992E-2
1.158252762E0,-1.374999993E-4,1.649999991E-3,1.649999991E-2
1.160753070E0,-1.374999993E-4,-5.499999970E-4,1.539999992E-2
1.163253607E0,9.624999948E-4,1.649999991E-3,1.539999992E-2
1.165753916E0,-1.374999993E-4,-5.499999970E-4,1.443750039E-2
1.168254304E0,-1.099999994E-3,5.499999970E-4,1.539999992E-2
1.170754614E0,-1.374999993E-4,-5.499999970E-4,1.223750040E-2
1.173255150E0,-1.099999994E-3,5.499999970E-4,1.223750040E-2
1.175755460E0,9.624999948E-4,5.499999970E-4,1.333750039E-2
1.178255763E0,-1.099999994E-3,-5.499999970E-4,1.223750040E-2
1.180756070E0,-1.374999993E-4,-5.499999970E-4,1.333750039E-2
1.183256453E0,-1.099999994E-3,5.499999970E-4,1.017499994E-2
1.185756763E0,9.624999948E-4,5.499999970E-4,9.074999951E-3
1.188257299E0,-1.374999993E-4,1.649999991E-3,9.074999951E-3
1.190757628E0,-1.099999994E-3,-1.649999991E-3,9.074999951E-3
1.193258010E0,2.062499989E-3,-1.649999991E-3,7.974999957E-3
1.195758320E0,-1.374999993E-4,-1.649999991E-3,6.874999963E-3
1.198258856E0,9.624999948E-4,5.499999970E-4,4.812499974E-3
1.200759171E0,9.624999948E-4,5.499999970E-4,5.912499968E-3
1.203259479E0,-1.099999994E-3,5.499999970E-4,2.612499986E-3
1.205759861E0,9.624999948E-4,5.499999970E-4,3.712499980E-3
1.208260171E0,9.624999948E-4,1.649999991E-3,1.649999991E-3
1.210760708E0,9.624999948E-4,-1.649999991E-3,2.612499986E-3
1.213261012E0,-1.374999993E-4,1.649999991E-3,-5.499999970E-4
1.215761395E0,2.062499989E-3,-5.499999970E-4,5.499999970E-4
1.218261705E0,-1.374999993E-4,-5.499999970E-4,-5.499999970E-4
1.220762012E0,-1.374999993E-4,-5.499999970E-4,-3.712499980E-3
1.223262534E0,-1.374999993E-4,-5.499999970E-4,-3.712499980E-3
1.225762844E0,-1.374999993E-4,-5.499999970E-4,-3.712499980E-3
1.228263151E0,9.624999948E-4,5.499999970E-4,-3.712499980E-3
1.230763534E0,9.624999948E-4,-5.499999970E-4,-5.774999969E-3
1.233263859E0,-1.374999993E-4,-5.499999970E-4,-5.774999969E-3
1.235764395E0,-1.374999993E-4,5.499999970E-4,-9.074999951E-3
1.238264705E0,-1.374999993E-4,-5.499999970E-4,-6.874999963E-3
1.240765087E0,9.624999948E-4,5.499999970E-4,-1.003750041E-2
1.243265367E0,9.624999948E-4,1.649999991E-3,-1.003750041E-2
1.245765675E0,-1.374999993E-4,1.649999991E-3,-1.003750041E-2
1.248266211E0,-1.374999993E-4,-1.649999991E-3,-1.113750041E-2
1.250766521E0,-1.374999993E-4,-5.499999970E-4,-1.333750039E-2
1.253266880E0,2.062499989E-3,5.499999970E-4,-1.429999992E-2
1.255767189E0,-1.374999993E-4,5.499999970E-4,-1.539999992E-2
1.258267726E0,9.624999948E-4,-5.499999970E-4,-1.429999992E-2
1.260768035E0,9.624999948E-4,5.499999970E-4,-1.649999991E-2
1.263268432E0,-1.374999993E-4,-1.649999991E-3,-1.649999991E-2
1.265768742E0,-1.374999993E-4,1.649999991E-3,-1.539999992E-2
1.268269049E0,9.624999948E-4,-1.649999991E-3,-1.649999991E-2
1.270769586E0,9.624999948E-4,1.649999991E-3,-1.429999992E-2
1.273269896E0,2.062499989E-3,5.499999970E-4,-1.539999992E-2
1.275770278E0,-1.374999993E-4,5.499999970E-4,-1.539999992E-2
1.278270588E0,9.624999948E-4,5.499999970E-4,-1.649999991E-2
1.280771124E0,9.624999948E-4,5.499999970E-4,-1.856249943E-2
1.283271434E0,-1.374999993E-4,-5.499999970E-4,-1.539999992E-2
1.285771771E0,-1.374999993E-4,5.499999970E-4,-1.649999991E-2
1.288272153E0,9.624999948E-4,-5.499999970E-4,-1.759999990E-2
1.290772463E0,-1.374999993E-4,5.499999970E-4,-1.649999991E-2
1.293272771E0,2.062499989E-3,-5.499999970E-4,-1.759999990E-2
1.295773312E0,-1.374999993E-4,-5.499999970E-4,-1.649999991E-2
1.298273622E0,-1.374999993E-4,5.499999970E-4,-1.759999990E-2
1.300774005E0,9.624999948E-4,-5.499999970E-4,-1.759999990E-2
1.303274314E0,-1.374999993E-4,5.499999970E-4,-1.649999991E-2
1.305774851E0,9.624999948E-4,5.499999970E-4,-1.649999991E-2
1.308275160E0,-1.374999993E-4,5.499999970E-4,-1.539999992E-2
1.310775468E0,2.062499989E-3,-1.649999991E-3,-1.539999992E-2
1.313275851E0,9.624999948E-4,-5.499999970E-4,-1.429999992E-2
1.315776160E0,9.624999948E-4,5.499999970E-4,-1.223750040E-2
1.318276730E0,9.624999948E-4,-5.499999970E-4,-1.223750040E-2
1.320777040E0,9.624999948E-4,-5.499999970E-4,-1.113750041E-2
1.323277422E0,9.624999948E-4,5.499999970E-4,-1.223750040E-2
1.325777732E0,-1.099999994E-3,5.499999970E-4,-1.113750041E-2
1.328278292E0,-1.374999993E-4,5.499999970E-4,-6.874999963E-3
1.330778602E0,-1.374999993E-4,5.499999970E-4,-7.974999957E-3
1.333278910E0,-1.374999993E-4,5.499999970E-4,-9.074999951E-3
1.335779217E0,-1.374999993E-4,-5.499999970E-4,-5.774999969E-3
1.338279600E0,-1.374999993E-4,1.649999991E-3,-4.812499974E-3
1.340779910E0,2.062499989E-3,-5.499999970E-4,-5.774999969E-3
1.343280446E0,9.624999948E-4,-5.499999970E-4,-4.812499974E-3
1.345780756E0,-1.374999993E-4,-1.649999991E-3,-3.712499980E-3
1.348281135E0,-1.374999993E-4,-1.649999991E-3,-3.712499980E-3
1.350781444E0,-1.374999993E-4,5.499999970E-4,-2.612499986E-3
1.353281981E0,9.624999948E-4,5.499999970E-4,-1.649999991E-3
1.355782290E0,9.624999948E-4,5.499999970E-4,-1.649999991E-3
1.358282598E0,-1.374999993E-4,5.499999970E-4,5.499999970E-4
1.360782952E0,-1.374999993E-4,2.612499986E-3,5.499999970E-4
1.363283261E0,9.624999948E-4,5.499999970E-4,2.612499986E-3
1.365783798E0,-1.099999994E-3,-5.499999970E-4,2.612499986E-3
1.368284108E0,-1.374999993E-4,-5.499999970E-4,4.812499974E-3
1.370784485E0,9.624999948E-4,1.649999991E-3,5.912499968E-3
1.373284795E0,-1.374999993E-4,5.499999970E-4,6.874999963E-3
1.375785103E0,9.624999948E-4,1.649999991E-3,6.874999963E-3
1.378285639E0,-1.374999993E-4,-5.499999970E-4,7.974999957E-3
1.380785949E0,9.624999948E-4,5.499999970E-4,9.074999951E-3
1.383286326E0,-1.099999994E-3,5.499999970E-4,1.017499994E-2
1.385786636E0,9.624999948E-4,1.649999991E-3,1.017499994E-2
1.388287173E0,-1.374999993E-4,-5.499999970E-4,1.113750041E-2
1.390787482E0,-1.374999993E-4,-5.499999970E-4,1.223750040E-2
1.393287785E0,-1.374999993E-4,1.649999991E-3,1.113750041E-2
1.395788168E0,-1.099999994E-3,-5.499999970E-4,1.113750041E-2
1.398288477E0,-1.374999993E-4,5.499999970E-4,1.223750040E-2
1.400788785E0,-1.374999993E-4,5.499999970E-4,1.443750039E-2
1.403289321E0,-1.374999993E-4,1.649999991E-3,1.333750039E-2
1.405789626E0,-1.374999993E-4,5.499999970E-4,1.443750039E-2
1.408290009E0,9.624999948E-4,1.649999991E-3,1.539999992E-2
1.410790319E0,9.624999948E-4,5.499999970E-4,1.443750039E-2
1.413290855E0,-1.374999993E-4,-5.499999970E-4,1.649999991E-2
1.415791180E0,-1.099999994E-3,-5.499999970E-4,1.759999990E-2
1.418291562E0,-1.374999993E-4,1.649999991E-3,1.649999991E-2
1.420791872E0,-1.374999993E-4,-5.499999970E-4,1.759999990E-2
1.423292180E0,-1.374999993E-4,1.649999991E-3,1.649999991E-2
1.425792511E0,-1.099999994E-3,-5.499999970E-4,1.759999990E-2
1.428293048E0,-1.374999993E-4,1.649999991E-3,1.649999991E-2
1.430793434E0,-1.099999994E-3,5.499999970E-4,1.649999991E-2
1.433293742E0,9.624999948E-4,5.499999970E-4,1.539999992E-2
1.435794279E0,9.624999948E-4,1.649999991E-3,1.539999992E-2
1.438294588E0,-1.374999993E-4,-5.499999970E-4,1.443750039E-2
1.440794896E0,-1.374999993E-4,5.499999970E-4,1.539999992E-2
1.443295279E0,-1.374999993E-4,-5.499999970E-4,1.443750039E-2
1.445795588E0,9.624999948E-4,1.649999991E-3,1.333750039E-2
1.448296129E0,-1.099999994E-3,5.499999970E-4,1.333750039E-2
1.450796439E0,-1.374999993E-4,1.649999991E-3,1.223750040E-2
1.453296821E0,-1.374999993E-4,-1.649999991E-3,1.333750039E-2
1.455797131E0,9.624999948E-4,-5.499999970E-4,1.113750041E-2
1.458297430E0,9.624999948E-4,5.499999970E-4,1.113750041E-2
1.460797966E0,9.624999948E-4,5.499999970E-4,1.113750041E-2
1.463298276E0,9.624999948E-4,1.649999991E-3,1.017499994E-2
1.465798583E0,-1.099999994E-3,5.499999970E-4,1.113750041E-2
1.468298966E0,-1.374999993E-4,5.499999970E-4,1.017499994E-2
1.470799276E0,-1.099999994E-3,5.499999970E-4,1.017499994E-2
1.473299583E0,-1.374999993E-4,5.499999970E-4,7.974999957E-3
1.475800120E0,-1.099999994E-3,5.499999970E-4,7.974999957E-3
1.478300425E0,-1.099999994E-3,1.649999991E-3,6.874999963E-3
1.480800807E0,9.624999948E-4,-1.649999991E-3,7.974999957E-3
1.483301117E0,-1.099999994E-3,1.649999991E-3,4.812499974E-3
1.485801653E0,9.624999948E-4,-5.499999970E-4,2.612499986E-3
1.488301929E0,-1.099999994E-3,1.649999991E-3,2.612499986E-3
1.490802237E0,-1.374999993E-4,5.499999970E-4,5.499999970E-4
1.493302619E0,-1.099999994E-3,5.499999970E-4,5.499999970E-4
1.495802929E0,-1.374999993E-4,-5.499999970E-4,-1.649999991E-3
1.498303466E0,-1.374999993E-4,5.499999970E-4,-2.612499986E-3
1.500803780E0,-1.374999993E-4,-5.499999970E-4,-1.649999991E-3
1.503304163E0,-1.374999993E-4,5.499999970E-4,-3.712499980E-3
1.505804473E0,-1.374999993E-4,-1.649999991E-3,-4.812499974E-3
1.508305009E0,9.624999948E-4,5.499999970E-4,-4.812499974E-3
1.510805319E0,-1.374999993E-4,1.649999991E-3,-3.712499980E-3
1.513305626E0,-1.374999993E-4,5.499999970E-4,-5.774999969E-3
1.515806009E0,2.062499989E-3,-5.499999970E-4,-6.874999963E-3
1.518306319E0,-1.099999994E-3,5.499999970E-4,-7.974999957E-3
1.520806865E0,9.624999948E-4,-5.499999970E-4,-1.003750041E-2
1.523307175E0,-1.374999993E-4,5.499999970E-4,-9.074999951E-3
1.525807558E0,9.624999948E-4,5.499999970E-4,-1.003750041E-2
1.528307867E0,-1.374999993E-4,-5.499999970E-4,-1.003750041E-2
1.530808404E0,-1.374999993E-4,-5.499999970E-4,-1.223750040E-2
1.533308713E0,9.624999948E-4,5.499999970E-4,-1.333750039E-2
1.535809021E0,9.624999948E-4,5.499999970E-4,-1.429999992E-2
1.538309404E0,-1.374999993E-4,-5.499999970E-4,-1.333750039E-2
1.540809713E0,-1.374999993E-4,5.499999970E-4,-1.539999992E-2
1.543310021E0,-1.374999993E-4,-1.649999991E-3,-1.539999992E-2
1.545810558E0,9.624999948E-4,-5.499999970E-4,-1.429999992E-2
1.548310867E0,-1.374999993E-4,5.499999970E-4,-1.649999991E-2
1.550811250E0,9.624999948E-4,5.499999970E-4,-1.649999991E-2
1.553311569E0,9.624999948E-4,-1.649999991E-3,-1.759999990E-2
1.555811876E0,2.062499989E-3,-5.499999970E-4,-1.649999991E-2
1.558312413E0,-1.374999993E-4,5.499999970E-4,-1.429999992E-2
1.560812722E0,-1.374999993E-4,5.499999970E-4,-1.759999990E-2
1.563313105E0,-1.374999993E-4,5.499999970E-4,-1.759999990E-2
1.565813415E0,2.062499989E-3,1.649999991E-3,-1.649999991E-2
1.568313951E0,-1.374999993E-4,-5.499999970E-4,-1.649999991E-2
1.570814261E0,-1.374999993E-4,5.499999970E-4,-1.759999990E-2
1.573314644E0,9.624999948E-4,-1.649999991E-3,-1.539999992E-2
1.575814953E0,9.624999948E-4,5.499999970E-4,-1.649999991E-2
1.578315261E0,9.624999948E-4,5.499999970E-4,-1.649999991E-2
1.580815797E0,-1.374999993E-4,5.499999970E-4,-1.539999992E-2
1.583316107E0,-1.374999993E-4,-5.499999970E-4,-1.429999992E-2
1.585816490E0,-1.374999993E-4,5.499999970E-4,-1.429999992E-2
1.588316799E0,-1.374999993E-4,-5.499999970E-4,-1.429999992E-2
1.590817336E0,9.624999948E-4,1.649999991E-3,-1.429999992E-2
1.593317646E0,-1.374999993E-4,-5.499999970E-4,-1.539999992E-2
1.595818014E0,9.624999948E-4,5.499999970E-4,-1.333750039E-2
1.598318324E0,9.624999948E-4,-1.649999991E-3,-1.333750039E-2
1.600818632E0,9.624999948E-4,-5.499999970E-4,-1.113750041E-2
1.603318939E0,9.624999948E-4,-5.499999970E-4,-1.113750041E-2
1.605819447E0,-1.374999993E-4,5.499999970E-4,-9.074999951E-3
1.608319757E0,-1.374999993E-4,-5.499999970E-4,-1.003750041E-2
1.610820139E0,9.624999948E-4,5.499999970E-4,-7.974999957E-3
1.613320449E0,-1.374999993E-4,5.499999970E-4,-6.874999963E-3
1.615820985E0,9.624999948E-4,2.612499986E-3,-6.874999963E-3
1.618321281E0,2.062499989E-3,-1.649999991E-3,-4.812499974E-3
1.620821664E0,-1.374999993E-4,-5.499999970E-4,-2.612499986E-3
1.623321973E0,-1.374999993E-4,-5.499999970E-4,-4.812499974E-3
1.625822281E0,-1.374999993E-4,-5.499999970E-4,-4.812499974E-3
1.628322793E0,9.624999948E-4,-2.612499986E-3,-3.712499980E-3
1.630823103E0,-1.374999993E-4,5.499999970E-4,-1.649999991E-3
1.633323486E0,-1.374999993E-4,-5.499999970E-4,-2.612499986E-3
1.635823796E0,-1.374999993E-4,1.649999991E-3,5.499999970E-4
1.638324103E0,-1.374999993E-4,5.499999970E-4,1.649999991E-3
1.640824635E0,-1.374999993E-4,5.499999970E-4,2.612499986E-3
1.643324944E0,9.624999948E-4,5.499999970E-4,1.649999991E-3
1.645825327E0,9.624999948E-4,5.499999970E-4,1.649999991E-3
1.648325637E0,-1.374999993E-4,5.499999970E-4,3.712499980E-3
1.650826163E0,-1.374999993E-4,-5.499999970E-4,5.912499968E-3
1.653326473E0,-1.374999993E-4,1.649999991E-3,6.874999963E-3
1.655826855E0,-1.374999993E-4,-5.499999970E-4,6.874999963E-3
1.658327165E0,9.624999948E-4,-5.499999970E-4,6.874999963E-3
1.660827473E0,-1.374999993E-4,1.649999991E-3,1.017499994E-2
1.663328014E0,-1.374999993E-4,5.499999970E-4,1.017499994E-2
1.665828324E0,9.624999948E-4,5.499999970E-4,1.223750040E-2
1.668328632E0,-1.099999994E-3,5.499999970E-4,1.017499994E-2
1.670829014E0,9.624999948E-4,5.499999970E-4,1.017499994E-2
1.673329309E0,-1.099999994E-3,-5.499999970E-4,1.223750040E-2
1.675829846E0,9.624999948E-4,-5.499999970E-4,1.223750040E-2
1.678330155E0,-1.374999993E-4,5.499999970E-4,1.223750040E-2
1.680830538E0,-1.374999993E-4,5.499999970E-4,1.113750041E-2
1.683330835E0,-1.374999993E-4,1.649999991E-3,1.443750039E-2
1.685831371E0,9.624999948E-4,5.499999970E-4,1.333750039E-2
1.688331681E0,-1.374999993E-4,5.499999970E-4,1.333750039E-2
1.690831988E0,-1.374999993E-4,-5.499999970E-4,1.333750039E-2
1.693332371E0,-1.374999993E-4,5.499999970E-4,1.333750039E-2
1.695832666E0,-1.374999993E-4,5.499999970E-4,1.539999992E-2
1.698333202E0,-1.374999993E-4,5.499999970E-4,1.539999992E-2
1.700833512E0,9.624999948E-4,5.499999970E-4,1.649999991E-2
1.703333820E0,-1.374999993E-4,-5.499999970E-4,1.649999991E-2
1.705834202E0,-1.374999993E-4,5.499999970E-4,1.759999990E-2
1.708334512E0,9.624999948E-4,5.499999970E-4,1.869999990E-2
1.710834820E0,9.624999948E-4,5.499999970E-4,1.759999990E-2
1.713335356E0,-1.374999993E-4,5.499999970E-4,1.649999991E-2
1.715835666E0,-1.374999993E-4,5.499999970E-4,1.649999991E-2
1.718336048E0,2.062499989E-3,5.499999970E-4,1.539999992E-2
1.720836358E0,-1.374999993E-4,5.499999970E-4,1.539999992E-2
1.723336895E0,-1.374999993E-4,-5.499999970E-4,1.443750039E-2
1.725837204E0,-1.374999993E-4,5.499999970E-4,1.539999992E-2
1.728337582E0,-1.374999993E-4,-5.499999970E-4,1.223750040E-2
1.730837892E0,-2.199999988E-3,5.499999970E-4,1.443750039E-2
1.733338199E0,9.624999948E-4,5.499999970E-4,1.223750040E-2
1.735838736E0,-1.099999994E-3,1.649999991E-3,1.113750041E-2
1.738339031E0,-1.374999993E-4,5.499999970E-4,1.113750041E-2
1.740839414E0,-1.099999994E-3,5.499999970E-4,1.113750041E-2
1.743339724E0,9.624999948E-4,-1.649999991E-3,9.074999951E-3
1.745840260E0,-1.099999994E-3,-1.649999991E-3,1.017499994E-2
1.748340570E0,-1.099999994E-3,5.499999970E-4,7.974999957E-3
1.750840948E0,9.624999948E-4,-5.499999970E-4,9.074999951E-3
1.753341180E0,9.624999948E-4,5.499999970E-4,7.974999957E-3
1.755841563E0,-1.374999993E-4,-5.499999970E-4,5.912499968E-3
1.758341873E0,9.624999948E-4,5.499999970E-4,5.912499968E-3
1.760842403E0,-1.374999993E-4,-1.649999991E-3,5.912499968E-3
1.763342713E0,2.062499989E-3,1.649999991E-3,2.612499986E-3
1.765843095E0,9.624999948E-4,-5.499999970E-4,3.712499980E-3
1.768343405E0,9.624999948E-4,1.649999991E-3,2.612499986E-3
1.770843971E0,9.624999948E-4,1.649999991E-3,-5.499999970E-4
1.773344280E0,9.624999948E-4,5.499999970E-4,5.499999970E-4
1.775844588E0,-1.374999993E-4,-5.499999970E-4,-1.649999991E-3
1.778344971E0,9.624999948E-4,-5.499999970E-4,5.499999970E-4
1.780845280E0,9.624999948E-4,-5.499999970E-4,-2.612499986E-3
1.783345846E0,-1.374999993E-4,1.649999991E-3,-3.712499980E-3
1.785846155E0,9.624999948E-4,-5.499999970E-4,-4.812499974E-3
1.788346538E0,-1.374999993E-4,1.649999991E-3,-6.874999963E-3
1.790846848E0,-1.374999993E-4,-5.499999970E-4,-5.774999969E-3
1.793347384E0,-1.374999993E-4,-5.499999970E-4,-7.974999957E-3
1.795847694E0,9.624999948E-4,5.499999970E-4,-6.874999963E-3
1.798348002E0,-1.099999994E-3,2.612499986E-3,-7.974999957E-3
1.800848309E0,9.624999948E-4,2.612499986E-3,-1.003750041E-2
1.803348692E0,-1.374999993E-4,-5.499999970E-4,-1.113750041E-2
1.805849036E0,2.062499989E-3,5.499999970E-4,-1.003750041E-2
1.808349572E0,9.624999948E-4,-5.499999970E-4,-1.113750041E-2
1.810849882E0,9.624999948E-4,1.649999991E-3,-1.113750041E-2
1.813350264E0,9.624999948E-4,-5.499999970E-4,-1.223750040E-2
1.815850588E0,9.624999948E-4,5.499999970E-4,-1.333750039E-2
1.818350896E0,9.624999948E-4,-1.649999991E-3,-1.429999992E-2
1.820851432E0,-1.374999993E-4,5.499999970E-4,-1.333750039E-2
1.823351742E0,9.624999948E-4,-5.499999970E-4,-1.649999991E-2
1.825852149E0,-1.374999993E-4,5.499999970E-4,-1.429999992E-2
1.828352458E0,9.624999948E-4,5.499999970E-4,-1.539999992E-2
1.830852995E0,9.624999948E-4,5.499999970E-4,-1.759999990E-2
1.833353305E0,9.624999948E-4,-1.649999991E-3,-1.649999991E-2
1.835853697E0,-1.374999993E-4,1.649999991E-3,-1.539999992E-2
1.838354007E0,-1.374999993E-4,-1.649999991E-3,-1.759999990E-2
1.840854315E0,9.624999948E-4,5.499999970E-4,-1.649999991E-2
1.843354851E0,-1.374999993E-4,-5.499999970E-4,-1.539999992E-2
1.845855146E0,-1.374999993E-4,-1.649999991E-3,-1.649999991E-2
1.848355453E0,-1.374999993E-4,-5.499999970E-4,-1.649999991E-2
1.850855836E0,9.624999948E-4,-5.499999970E-4,-1.856249943E-2
1.853356146E0,-1.374999993E-4,-5.499999970E-4,-1.759999990E-2
1.855856682E0,9.624999948E-4,5.499999970E-4,-1.539999992E-2
1.858356992E0,9.624999948E-4,5.499999970E-4,-1.539999992E-2
1.860857375E0,9.624999948E-4,-5.499999970E-4,-1.429999992E-2
1.863357684E0,9.624999948E-4,5.499999970E-4,-1.539999992E-2
1.865857992E0,9.624999948E-4,-5.499999970E-4,-1.649999991E-2
1.868358543E0,9.624999948E-4,5.499999970E-4,-1.429999992E-2
1.870858853E0,-1.099999994E-3,1.649999991E-3,-1.429999992E-2
1.873359236E0,-1.374999993E-4,-5.499999970E-4,-1.333750039E-2
1.875859545E0,2.062499989E-3,-5.499999970E-4,-1.429999992E-2
1.878360082E0,2.062499989E-3,1.649999991E-3,-1.333750039E-2
1.880860392E0,-1.374999993E-4,-5.499999970E-4,-1.333750039E-2
1.883360774E0,2.062499989E-3,5.499999970E-4,-1.113750041E-2
1.885861084E0,9.624999948E-4,5.499999970E-4,-1.003750041E-2
1.888361392E0,-1.099999994E-3,5.499999970E-4,-9.074999951E-3
1.890861928E0,9.624999948E-4,-2.612499986E-3,-1.003750041E-2
1.893362242E0,9.624999948E-4,-5.499999970E-4,-6.874999963E-3
1.895862624E0,9.624999948E-4,5.499999970E-4,-5.774999969E-3
1.898362934E0,9.624999948E-4,5.499999970E-4,-6.874999963E-3
1.900863242E0,9.624999948E-4,2.612499986E-3,-5.774999969E-3
1.903363798E0,-1.374999993E-4,1.649999991E-3,-3.712499980E-3
1.905864108E0,-1.374999993E-4,-5.499999970E-4,-3.712499980E-3
1.908364491E0,9.624999948E-4,5.499999970E-4,-1.649999991E-3
1.910864800E0,-1.374999993E-4,5.499999970E-4,-2.612499986E-3
1.913365112E0,-1.374999993E-4,5.499999970E-4,-1.649999991E-3
1.915865648E0,9.624999948E-4,-1.649999991E-3,-5.499999970E-4
1.918365958E0,2.062499989E-3,1.649999991E-3,-5.499999970E-4
1.920866341E0,2.062499989E-3,5.499999970E-4,5.499999970E-4
1.923366655E0,9.624999948E-4,5.499999970E-4,3.712499980E-3
1.925867192E0,-2.199999988E-3,-1.649999991E-3,2.612499986E-3
1.928367502E0,9.624999948E-4,5.499999970E-4,3.712499980E-3
1.930867809E0,-1.099999994E-3,5.499999970E-4,3.712499980E-3
1.933368192E0,9.624999948E-4,1.649999991E-3,5.912499968E-3
1.935868522E0,9.624999948E-4,5.499999970E-4,6.874999963E-3
1.938369058E0,-1.374999993E-4,5.499999970E-4,7.974999957E-3
1.940869368E0,9.624999948E-4,1.649999991E-3,9.074999951E-3
1.943369750E0,-1.374999993E-4,5.499999970E-4,7.974999957E-3
1.945870046E0,-1.374999993E-4,5.499999970E-4,1.113750041E-2
1.948370583E0,-1.374999993E-4,-5.499999970E-4,1.113750041E-2
1.950870892E0,-1.374999993E-4,-5.499999970E-4,1.113750041E-2
1.953371200E0,-1.099999994E-3,5.499999970E-4,1.333750039E-2
1.955871568E0,-1.374999993E-4,5.499999970E-4,1.333750039E-2
1.958371877E0,-1.374999993E-4,1.649999991E-3,1.443750039E-2
1.960872185E0,9.624999948E-4,-5.499999970E-4,1.443750039E-2
1.963372721E0,-1.099999994E-3,-5.499999970E-4,1.333750039E-2
1.965873046E0,-1.374999993E-4,2.612499986E-3,1.333750039E-2
1.968373429E0,-1.374999993E-4,1.649999991E-3,1.649999991E-2
1.970873738E0,-1.374999993E-4,1.649999991E-3,1.649999991E-2
1.973374046E0,-1.374999993E-4,-5.499999970E-4,1.759999990E-2
1.975874583E0,-1.374999993E-4,5.499999970E-4,1.759999990E-2
1.978374892E0,-1.374999993E-4,-1.649999991E-3,1.869999990E-2
1.980875275E0,-1.374999993E-4,-5.499999970E-4,1.966249943E-2
1.983375585E0,9.624999948E-4,5.499999970E-4,2.076249942E-2
1.985876097E0,-1.099999994E-3,-5.499999970E-4,2.076249942E-2
1.988376407E0,9.624999948E-4,1.649999991E-3,2.076249942E-2
1.990876789E0,-1.374999993E-4,1.649999991E-3,2.076249942E-2
1.993377022E0,9.624999948E-4,-5.499999970E-4,1.869999990E-2
1.995877405E0,-1.374999993E-4,-5.499999970E-4,2.076249942E-2
1.998377715E0,-1.374999993E-4,5.499999970E-4,2.076249942E-2
2.000878251E0,2.062499989E-3,5.499999970E-4,2.076249942E-2
2.003378561E0,9.624999948E-4,1.649999991E-3,1.869999990E-2
2.005878943E0,-1.374999993E-4,-5.499999970E-4,1.869999990E-2
2.008379238E0,-1.099999994E-3,1.649999991E-3,1.759999990E-2
2.010879774E0,9.624999948E-4,1.649999991E-3,1.759999990E-2
2.013380084E0,-1.374999993E-4,5.499999970E-4,1.539999992E-2
2.015880392E0,-1.374999993E-4,5.499999970E-4,1.539999992E-2
2.018380804E0,-1.374999993E-4,-5.499999970E-4,1.443750039E-2
2.020881342E0,-1.099999994E-3,5.499999970E-4,1.223750040E-2
2.023381652E0,-1.374999993E-4,5.499999970E-4,1.333750039E-2
2.025881959E0,-1.374999993E-4,1.649999991E-3,1.223750040E-2
2.028382371E0,-1.374999993E-4,5.499999970E-4,1.017499994E-2
2.030882681E0,9.624999948E-4,5.499999970E-4,9.074999951E-3
2.033383217E0,-1.374999993E-4,1.649999991E-3,9.074999951E-3
2.035883527E0,-1.374999993E-4,1.649999991E-3,6.874999963E-3
2.038383835E0,-1.374999993E-4,5.499999970E-4,5.912499968E-3
2.040884221E0,-1.374999993E-4,-5.499999970E-4,7.974999957E-3
2.043384531E0,9.624999948E-4,-5.499999970E-4,5.912499968E-3
2.045885067E0,-1.374999993E-4,-5.499999970E-4,3.712499980E-3
2.048385377E0,9.624999948E-4,-5.499999970E-4,2.612499986E-3
2.050885765E0,9.624999948E-4,1.649999991E-3,2.612499986E-3
2.053386074E0,-1.374999993E-4,5.499999970E-4,-5.499999970E-4
2.055886382E0,9.624999948E-4,5.499999970E-4,-5.499999970E-4
2.058386690E0,-1.374999993E-4,5.499999970E-4,-3.712499980E-3
2.060887207E0,-1.374999993E-4,5.499999970E-4,-4.812499974E-3
2.063387517E0,-1.374999993E-4,5.499999970E-4,-3.712499980E-3
2.065887900E0,-1.374999993E-4,5.499999970E-4,-5.774999969E-3
2.068388209E0,2.062499989E-3,5.499999970E-4,-6.874999963E-3
2.070888722E0,2.062499989E-3,-5.499999970E-4,-9.074999951E-3
2.073389031E0,-1.374999993E-4,5.499999970E-4,-1.113750041E-2
2.075889414E0,9.624999948E-4,5.499999970E-4,-1.003750041E-2
2.078389724E0,9.624999948E-4,5.499999970E-4,-1.003750041E-2
2.080890040E0,9.624999948E-4,-5.499999970E-4,-1.333750039E-2
2.083390577E0,2.062499989E-3,5.499999970E-4,-1.333750039E-2
2.085890887E0,9.624999948E-4,-1.649999991E-3,-1.429999992E-2
2.088391269E0,2.062499989E-3,-5.499999970E-4,-1.429999992E-2
2.090891579E0,9.624999948E-4,5.499999970E-4,-1.539999992E-2
2.093392106E0,2.062499989E-3,1.649999991E-3,-1.649999991E-2
2.095892416E0,9.624999948E-4,-5.499999970E-4,-1.649999991E-2
2.098392724E0,9.624999948E-4,1.649999991E-3,-1.649999991E-2
2.100893106E0,-1.374999993E-4,-5.499999970E-4,-1.966249943E-2
2.103393400E0,9.624999948E-4,5.499999970E-4,-1.856249943E-2
2.105893937E0,-1.374999993E-4,-1.649999991E-3,-2.076249942E-2
2.108394246E0,-1.374999993E-4,1.649999991E-3,-2.076249942E-2
2.110894629E0,-1.374999993E-4,-5.499999970E-4,-2.186249942E-2
2.113394930E0,9.624999948E-4,1.649999991E-3,-2.076249942E-2
2.115895466E0,9.624999948E-4,-5.499999970E-4,-2.076249942E-2
2.118395776E0,2.062499989E-3,1.649999991E-3,-2.186249942E-2
2.120896158E0,-1.374999993E-4,1.649999991E-3,-2.282499894E-2
2.123396405E0,-1.374999993E-4,5.499999970E-4,-2.282499894E-2
2.125896788E0,9.624999948E-4,5.499999970E-4,-1.966249943E-2
2.128397097E0,9.624999948E-4,5.499999970E-4,-2.186249942E-2
2.130897634E0,9.624999948E-4,5.499999970E-4,-2.282499894E-2
2.133397944E0,-1.374999993E-4,-5.499999970E-4,-2.076249942E-2
2.135898312E0,9.624999948E-4,5.499999970E-4,-1.966249943E-2
2.138398622E0,9.624999948E-4,5.499999970E-4,-2.076249942E-2
2.140898930E0,9.624999948E-4,5.499999970E-4,-2.076249942E-2
2.143399466E0,2.062499989E-3,-5.499999970E-4,-1.759999990E-2
2.145899756E0,9.624999948E-4,2.612499986E-3,-1.759999990E-2
2.148400138E0,2.062499989E-3,1.649999991E-3,-1.759999990E-2
2.150900448E0,9.624999948E-4,-5.499999970E-4,-1.759999990E-2
2.153400985E0,9.624999948E-4,1.649999991E-3,-1.649999991E-2
2.155901294E0,9.624999948E-4,-5.499999970E-4,-1.539999992E-2
2.158401626E0,2.062499989E-3,5.499999970E-4,-1.649999991E-2
2.160902009E0,-1.374999993E-4,-5.499999970E-4,-1.539999992E-2
2.163402318E0,9.624999948E-4,5.499999970E-4,-1.429999992E-2
2.165902626E0,-1.374999993E-4,-5.499999970E-4,-1.333750039E-2
2.168403162E0,2.062499989E-3,5.499999970E-4,-1.223750040E-2
2.170903472E0,9.624999948E-4,5.499999970E-4,-1.113750041E-2
2.173403855E0,2.062499989E-3,5.499999970E-4,-1.003750041E-2
2.175904164E0,9.624999948E-4,-1.649999991E-3,-7.974999957E-3
2.178404716E0,-1.374999993E-4,1.649999991E-3,-6.874999963E-3
2.180905026E0,9.624999948E-4,-5.499999970E-4,-6.874999963E-3
2.183405408E0,9.624999948E-4,5.499999970E-4,-3.712499980E-3
2.185905718E0,9.624999948E-4,-1.649999991E-3,-3.712499980E-3
2.188406021E0,-1.099999994E-3,5.499999970E-4,-2.612499986E-3
2.190906557E0,9.624999948E-4,5.499999970E-4,-1.649999991E-3
2.193406867E0,-1.374999993E-4,1.649999991E-3,-5.499999970E-4
2.195907249E0,9.624999948E-4,5.499999970E-4,1.649999991E-3
2.198407525E0,9.624999948E-4,5.499999970E-4,1.649999991E-3
2.200908062E0,-1.099999994E-3,-5.499999970E-4,3.712499980E-3
2.203408371E0,9.624999948E-4,-5.499999970E-4,4.812499974E-3
2.205908679E0,-1.374999993E-4,1.649999991E-3,5.912499968E-3
2.208409062E0,-1.374999993E-4,-1.649999991E-3,5.912499968E-3
2.210909367E0,9.624999948E-4,5.499999970E-4,6.874999963E-3
2.213409675E0,9.624999948E-4,5.499999970E-4,9.074999951E-3
2.215910212E0,2.062499989E-3,2.612499986E-3,9.074999951E-3
2.218410521E0,-1.374999993E-4,-5.499999970E-4,1.113750041E-2
2.220910908E0,9.624999948E-4,5.499999970E-4,1.223750040E-2
2.223411218E0,9.624999948E-4,1.649999991E-3,1.223750040E-2
2.225911754E0,-1.099999994E-3,-5.499999970E-4,1.333750039E-2
2.228412064E0,-1.099999994E-3,-5.499999970E-4,1.649999991E-2
2.230912386E0,-1.099999994E-3,-5.499999970E-4,1.443750039E-2
2.233412769E0,9.624999948E-4,-5.499999970E-4,1.539999992E-2
2.235913079E0,-1.374999993E-4,1.649999991E-3,1.649999991E-2
2.238413615E0,9.624999948E-4,5.499999970E-4,1.869999990E-2
2.240913934E0,-1.374999993E-4,-5.499999970E-4,1.869999990E-2
2.243414317E0,-1.374999993E-4,5.499999970E-4,1.759999990E-2
2.245914626E0,-1.374999993E-4,5.499999970E-4,2.076249942E-2
2.248414934E0,-1.374999993E-4,-5.499999970E-4,1.966249943E-2
2.250915470E0,9.624999948E-4,1.649999991E-3,2.186249942E-2
2.253415780E0,-1.374999993E-4,-5.499999970E-4,1.966249943E-2
2.255916163E0,-1.099999994E-3,5.499999970E-4,2.076249942E-2
2.258416472E0,-1.374999993E-4,5.499999970E-4,1.966249943E-2
2.260916780E0,-1.374999993E-4,2.612499986E-3,2.076249942E-2
2.263417332E0,2.062499989E-3,5.499999970E-4,2.186249942E-2
2.265917641E0,-1.099999994E-3,5.499999970E-4,2.076249942E-2
2.268418024E0,9.624999948E-4,5.499999970E-4,2.186249942E-2
2.270918334E0,-1.099999994E-3,-1.649999991E-3,2.186249942E-2
2.273418651E0,-1.099999994E-3,5.499999970E-4,2.076249942E-2
2.275919188E0,-1.099999994E-3,-5.499999970E-4,2.076249942E-2
2.278419497E0,9.624999948E-4,5.499999970E-4,1.966249943E-2
2.280919880E0,-1.374999993E-4,-5.499999970E-4,2.076249942E-2
2.283420190E0,-1.374999993E-4,1.649999991E-3,1.966249943E-2
2.285920726E0,-1.374999993E-4,1.649999991E-3,1.966249943E-2
2.288421036E0,-1.374999993E-4,5.499999970E-4,1.966249943E-2
2.290921344E0,-1.374999993E-4,-5.499999970E-4,1.759999990E-2
2.293421712E0,9.624999948E-4,-5.499999970E-4,1.759999990E-2
2.295922022E0,-1.374999993E-4,-5.499999970E-4,1.539999992E-2
2.298422558E0,-1.374999993E-4,5.499999970E-4,1.649999991E-2
2.300922868E0,-1.374999993E-4,-5.499999970E-4,1.333750039E-2
2.303423251E0,-1.374999993E-4,1.649999991E-3,1.223750040E-2
2.305923560E0,2.062499989E-3,-1.649999991E-3,1.333750039E-2
2.308424097E0,-1.374999993E-4,5.499999970E-4,1.223750040E-2
2.310924407E0,9.624999948E-4,5.499999970E-4,1.017499994E-2
2.313424789E0,-1.374999993E-4,5.499999970E-4,7.974999957E-3
2.315925032E0,9.624999948E-4,-1.649999991E-3,7.974999957E-3
2.318425415E0,9.624999948E-4,5.499999970E-4,5.912499968E-3
2.320925724E0,9.624999948E-4,-5.499999970E-4,6.874999963E-3
2.323426261E0,-1.374999993E-4,5.499999970E-4,5.912499968E-3
2.325926570E0,-1.374999993E-4,5.499999970E-4,4.812499974E-3
2.328426952E0,-1.374999993E-4,-5.499999970E-4,2.612499986E-3
2.330927262E0,2.062499989E-3,1.649999991E-3,1.649999991E-3
2.333427798E0,-1.374999993E-4,5.499999970E-4,1.649999991E-3
2.335928108E0,-1.374999993E-4,5.499999970E-4,-5.499999970E-4
2.338428402E0,-1.374999993E-4,-1.649999991E-3,-2.612499986E-3
2.340928784E0,-1.374999993E-4,-5.499999970E-4,-2.612499986E-3
2.343429094E0,9.624999948E-4,-1.649999991E-3,-4.812499974E-3
2.345929630E0,9.624999948E-4,-5.499999970E-4,-5.774999969E-3
2.348429935E0,2.062499989E-3,5.499999970E-4,-7.974999957E-3
2.350930318E0,9.624999948E-4,-5.499999970E-4,-7.974999957E-3
2.353430627E0,2.062499989E-3,5.499999970E-4,-1.003750041E-2
2.355930935E0,2.062499989E-3,-5.499999970E-4,-7.974999957E-3
2.358431234E0,-1.374999993E-4,5.499999970E-4,-1.333750039E-2
2.360931770E0,9.624999948E-4,5.499999970E-4,-1.333750039E-2
2.363432080E0,9.624999948E-4,-5.499999970E-4,-1.223750040E-2
2.365932463E0,2.062499989E-3,5.499999970E-4,-1.539999992E-2
2.368432791E0,9.624999948E-4,-2.612499986E-3,-1.429999992E-2
2.370933328E0,9.624999948E-4,2.612499986E-3,-1.759999990E-2
2.373433638E0,9.624999948E-4,-5.499999970E-4,-1.759999990E-2
2.375934020E0,2.062499989E-3,-5.499999970E-4,-1.759999990E-2
2.378434330E0,9.624999948E-4,5.499999970E-4,-1.856249943E-2
2.380934628E0,-1.374999993E-4,5.499999970E-4,-1.649999991E-2
2.383435164E0,9.624999948E-4,-2.612499986E-3,-1.856249943E-2
2.385935474E0,-1.374999993E-4,5.499999970E-4,-1.966249943E-2
2.388435856E0,9.624999948E-4,-5.499999970E-4,-2.076249942E-2
2.390936152E0,9.624999948E-4,5.499999970E-4,-2.076249942E-2
2.393436688E0,9.624999948E-4,5.499999970E-4,-2.186249942E-2
2.395936998E0,9.624999948E-4,-5.499999970E-4,-2.186249942E-2
2.398437381E0,9.624999948E-4,-5.499999970E-4,-2.186249942E-2
2.400937690E0,9.624999948E-4,-5.499999970E-4,-2.392499894E-2
2.403437998E0,-1.374999993E-4,-5.499999970E-4,-2.076249942E-2
2.405938535E0,9.624999948E-4,5.499999970E-4,-2.186249942E-2
2.408438844E0,-1.374999993E-4,-5.499999970E-4,-2.186249942E-2
2.410939227E0,-1.374999993E-4,5.499999970E-4,-2.186249942E-2
2.413439527E0,-1.374999993E-4,-1.649999991E-3,-2.186249942E-2
2.415939834E0,-1.374999993E-4,-5.499999970E-4,-2.186249942E-2
2.418440371E0,-1.374999993E-4,-5.499999970E-4,-2.076249942E-2
2.420940681E0,9.624999948E-4,5.499999970E-4,-2.076249942E-2
2.423441053E0,-1.374999993E-4,-5.499999970E-4,-1.759999990E-2
2.425941363E0,9.624999948E-4,5.499999970E-4,-1.856249943E-2
2.428441671E0,9.624999948E-4,-5.499999970E-4,-1.966249943E-2
2.430942207E0,9.624999948E-4,-5.499999970E-4,-1.856249943E-2
2.433442512E0,-1.374999993E-4,-5.499999970E-4,-1.759999990E-2
2.435942894E0,9.624999948E-4,5.499999970E-4,-1.649999991E-2
2.438443204E0,9.624999948E-4,5.499999970E-4,-1.649999991E-2
2.440943512E0,9.624999948E-4,-5.499999970E-4,-1.649999991E-2
2.443444023E0,-1.374999993E-4,1.649999991E-3,-1.429999992E-2
2.445944333E0,9.624999948E-4,5.499999970E-4,-1.333750039E-2
2.448444641E0,-1.099999994E-3,-5.499999970E-4,-1.003750041E-2
2.450945023E0,-1.099999994E-3,-5.499999970E-4,-1.113750041E-2
2.453445333E0,-1.374999993E-4,5.499999970E-4,-1.113750041E-2
2.455945884E0,9.624999948E-4,5.499999970E-4,-9.074999951E-3
2.458446194E0,9.624999948E-4,-5.499999970E-4,-6.874999963E-3
2.460946577E0,-1.374999993E-4,-1.649999991E-3,-6.874999963E-3
2.463446886E0,9.624999948E-4,1.649999991E-3,-5.774999969E-3
2.465947428E0,-1.374999993E-4,5.499999970E-4,-3.712499980E-3
2.468447738E0,9.624999948E-4,-5.499999970E-4,-2.612499986E-3
2.470948120E0,-1.374999993E-4,-1.649999991E-3,-2.612499986E-3
2.473448430E0,9.624999948E-4,5.499999970E-4,5.499999970E-4
2.475948975E0,9.624999948E-4,-5.499999970E-4,1.649999991E-3
2.478449285E0,-1.099999994E-3,5.499999970E-4,1.649999991E-3
2.480949593E0,9.624999948E-4,5.499999970E-4,4.812499974E-3
2.483449900E0,9.624999948E-4,1.649999991E-3,4.812499974E-3
2.485950283E0,9.624999948E-4,-5.499999970E-4,4.812499974E-3
2.488450603E0,9.624999948E-4,5.499999970E-4,5.912499968E-3
2.490951139E0,9.624999948E-4,-5.499999970E-4,7.974999957E-3
2.493451449E0,9.624999948E-4,1.649999991E-3,7.974999957E-3
2.495951832E0,-1.374999993E-4,-5.499999970E-4,6.874999963E-3
2.498452146E0,-1.374999993E-4,-5.499999970E-4,9.074999951E-3
2.500952683E0,-1.099999994E-3,-5.499999970E-4,1.113750041E-2
2.503452992E0,-1.374999993E-4,-1.649999991E-3,1.017499994E-2
2.505953300E0,-1.374999993E-4,-1.649999991E-3,1.223750040E-2
2.508453683E0,-1.374999993E-4,1.649999991E-3,1.223750040E-2
2.510953992E0,-1.099999994E-3,5.499999970E-4,1.113750041E-2
2.513454300E0,9.624999948E-4,1.649999991E-3,1.223750040E-2
2.515954837E0,9.624999948E-4,-1.649999991E-3,1.333750039E-2
2.518455150E0,-1.374999993E-4,1.649999991E-3,1.333750039E-2
2.520955533E0,-1.099999994E-3,5.499999970E-4,1.333750039E-2
2.523455843E0,-1.374999993E-4,5.499999970E-4,1.333750039E-2
2.525956150E0,-1.099999994E-3,5.499999970E-4,1.333750039E-2
2.528456692E0,-1.099999994E-3,-5.499999970E-4,1.443750039E-2
2.530957001E0,-1.099999994E-3,5.499999970E-4,1.113750041E-2
2.533457384E0,-1.099999994E-3,5.499999970E-4,1.223750040E-2
2.535957694E0,-1.374999993E-4,5.499999970E-4,1.223750040E-2
2.538458230E0,9.624999948E-4,5.499999970E-4,1.113750041E-2
2.540958555E0,-1.374999993E-4,5.499999970E-4,1.017499994E-2
2.543458938E0,-1.374999993E-4,5.499999970E-4,1.017499994E-2
2.545959247E0,9.624999948E-4,5.499999970E-4,1.017499994E-2
2.548459555E0,-1.374999993E-4,-1.649999991E-3,9.074999951E-3
2.550960091E0,-1.099999994E-3,5.499999970E-4,9.074999951E-3
2.553460401E0,9.624999948E-4,5.499999970E-4,1.017499994E-2
2.555960784E0,-1.374999993E-4,1.649999991E-3,6.874999963E-3
2.558461093E0,-1.099999994E-3,5.499999970E-4,6.874999963E-3
2.560961634E0,-1.374999993E-4,2.612499986E-3,4.812499974E-3
2.563461944E0,2.062499989E-3,-5.499999970E-4,5.912499968E-3
2.565962251E0,-1.099999994E-3,-5.499999970E-4,4.812499974E-3
2.568462634E0,9.624999948E-4,5.499999970E-4,4.812499974E-3
2.570962940E0,-1.374999993E-4,-1.649999991E-3,2.612499986E-3
2.573463247E0,9.624999948E-4,5.499999970E-4,2.612499986E-3
2.575963784E0,-1.374999993E-4,5.499999970E-4,1.649999991E-3
2.578464094E0,9.624999948E-4,1.649999991E-3,1.649999991E-3
2.580964476E0,9.624999948E-4,5.499999970E-4,1.649999991E-3
2.583464795E0,9.624999948E-4,5.499999970E-4,1.649999991E-3
2.585965103E0,9.624999948E-4,-5.499999970E-4,5.499999970E-4
2.588465639E0,-1.374999993E-4,-5.499999970E-4,-5.499999970E-4
2.590965949E0,-1.099999994E-3,-5.499999970E-4,-5.499999970E-4
2.593466331E0,-1.099999994E-3,5.499999970E-4,-5.499999970E-4
2.595966651E0,9.624999948E-4,-5.499999970E-4,-1.649999991E-3
2.598467188E0,-1.374999993E-4,-5.499999970E-4,-1.649999991E-3
2.600967497E0,2.062499989E-3,5.499999970E-4,-2.612499986E-3
2.603467880E0,9.624999948E-4,5.499999970E-4,-5.499999970E-4
2.605968180E0,2.062499989E-3,-5.499999970E-4,-5.499999970E-4
2.608468487E0,-1.374999993E-4,5.499999970E-4,1.649999991E-3
2.610969024E0,9.624999948E-4,5.499999970E-4,5.499999970E-4
2.613469333E0,-1.099999994E-3,5.499999970E-4,-5.499999970E-4
2.615969716E0,-1.099999994E-3,-5.499999970E-4,-5.499999970E-4
2.618470026E0,-1.099999994E-3,-5.499999970E-4,-1.649999991E-3
2.620970562E0,9.624999948E-4,-1.649999991E-3,5.499999970E-4
2.623470872E0,-1.099999994E-3,1.649999991E-3,5.499999970E-4
2.625971244E0,9.624999948E-4,-5.499999970E-4,5.499999970E-4
2.628471477E0,9.624999948E-4,1.649999991E-3,-5.499999970E-4
2.630971860E0,9.624999948E-4,-5.499999970E-4,-5.499999970E-4
2.633472170E0,9.624999948E-4,5.499999970E-4,-5.499999970E-4
2.635972711E0,-1.374999993E-4,5.499999970E-4,-1.649999991E-3
2.638473021E0,-1.099999994E-3,-5.499999970E-4,5.499999970E-4
2.640973403E0,-1.099999994E-3,5.499999970E-4,-5.499999970E-4
2.643473713E0,-1.099999994E-3,5.499999970E-4,-5.499999970E-4
2.645974241E0,9.624999948E-4,5.499999970E-4,5.499999970E-4
2.648474550E0,-1.374999993E-4,-1.649999991E-3,5.499999970E-4
2.650974858E0,9.624999948E-4,-5.499999970E-4,1.649999991E-3
2.653475241E0,9.624999948E-4,5.499999970E-4,1.649999991E-3
2.655975530E0,-1.099999994E-3,1.649999991E-3,5.499999970E-4
2.658476067E0,9.624999948E-4,-1.649999991E-3,-5.499999970E-4
2.660976376E0,-1.374999993E-4,1.649999991E-3,1.649999991E-3
2.663476759E0,9.624999948E-4,-5.499999970E-4,1.649999991E-3
2.665977050E0,-1.374999993E-4,-5.499999970E-4,-5.499999970E-4
2.668477357E0,-1.099999994E-3,5.499999970E-4,-5.499999970E-4
2.670977665E0,9.624999948E-4,5.499999970E-4,5.499999970E-4
2.673478202E0,-1.099999994E-3,5.499999970E-4,5.499999970E-4
2.675978511E0,9.624999948E-4,1.649999991E-3,1.649999991E-3
2.678478894E0,-1.374999993E-4,5.499999970E-4,2.612499986E-3
2.680979204E0,9.624999948E-4,1.649999991E-3,-5.499999970E-4
2.683479740E0,-1.099999994E-3,-5.499999970E-4,-5.499999970E-4
2.685980050E0,-1.099999994E-3,5.499999970E-4,5.499999970E-4
2.688480422E0,-1.099999994E-3,-5.499999970E-4,5.499999970E-4
2.690980732E0,9.624999948E-4,1.649999991E-3,5.499999970E-4
2.693481040E0,9.624999948E-4,5.499999970E-4,-1.649999991E-3
2.695981576E0,-1.374999993E-4,-5.499999970E-4,1.649999991E-3
2.698481891E0,9.624999948E-4,-5.499999970E-4,5.499999970E-4
2.700982274E0,-1.374999993E-4,2.612499986E-3,5.499999970E-4
2.703482583E0,-1.374999993E-4,1.649999991E-3,1.649999991E-3
2.705983120E0,9.624999948E-4,-1.649999991E-3,5.499999970E-4
2.708483386E0,-1.374999993E-4,-5.499999970E-4,5.499999970E-4
2.710983769E0,-1.374999993E-4,5.499999970E-4,1.649999991E-3
2.713484079E0,-1.099999994E-3,5.499999970E-4,5.499999970E-4
2.715984386E0,-1.099999994E-3,-5.499999970E-4,1.649999991E-3
2.718484923E0,2.062499989E-3,5.499999970E-4,-5.499999970E-4
2.720985242E0,9.624999948E-4,5.499999970E-4,-5.499999970E-4
2.723485549E0,-1.374999993E-4,5.499999970E-4,-5.499999970E-4
2.725985932E0,-1.374999993E-4,5.499999970E-4,1.649999991E-3
2.728486242E0,-1.374999993E-4,-5.499999970E-4,-1.649999991E-3
2.730986778E0,9.624999948E-4,-5.499999970E-4,1.649999991E-3
2.733487088E0,-1.374999993E-4,5.499999970E-4,-5.499999970E-4
2.735987396E0,-1.374999993E-4,5.499999970E-4,5.499999970E-4
2.738487778E0,2.062499989E-3,5.499999970E-4,-5.499999970E-4
2.740988098E0,9.624999948E-4,1.649999991E-3,-1.649999991E-3
2.743488634E0,9.624999948E-4,1.649999991E-3,-5.499999970E-4
2.745988944E0,2.062499989E-3,2.612499986E-3,1.649999991E-3
2.748489327E0,-1.374999993E-4,5.499999970E-4,5.499999970E-4
2.750989636E0,-1.099999994E-3,5.499999970E-4,5.499999970E-4
2.753489944E0,9.624999948E-4,5.499999970E-4,5.499999970E-4
2.755990480E0,-1.374999993E-4,5.499999970E-4,-5.499999970E-4
2.758490790E0,9.624999948E-4,-5.499999970E-4,-5.499999970E-4
2.760991168E0,9.624999948E-4,5.499999970E-4,-5.499999970E-4
2.763491478E0,9.624999948E-4,1.649999991E-3,5.499999970E-4
2.765992014E0,2.062499989E-3,5.499999970E-4,-1.649999991E-3
2.768492324E0,-1.374999993E-4,5.499999970E-4,-5.499999970E-4
2.770992631E0,-1.374999993E-4,-5.499999970E-4,5.499999970E-4
2.773493014E0,2.062499989E-3,5.499999970E-4,-1.649999991E-3
2.775993324E0,-1.374999993E-4,-5.499999970E-4,-1.649999991E-3
2.778493860E0,-1.099999994E-3,-5.499999970E-4,1.649999991E-3
2.780994170E0,-1.374999993E-4,5.499999970E-4,5.499999970E-4
2.783494567E0,9.624999948E-4,1.649999991E-3,-1.649999991E-3
2.785994877E0,9.624999948E-4,-5.499999970E-4,5.499999970E-4
2.788495185E0,-1.374999993E-4,5.499999970E-4,2.612499986E-3
2.790995721E0,-1.374999993E-4,1.649999991E-3,5.499999970E-4
2.793496011E0,-1.099999994E-3,1.649999991E-3,1.649999991E-3
2.795996319E0,9.624999948E-4,-5.499999970E-4,1.649999991E-3
2.798496701E0,-2.199999988E-3,5.499999970E-4,5.499999970E-4
2.800997011E0,-1.374999993E-4,-5.499999970E-4,5.499999970E-4
2.803497530E0,-1.374999993E-4,5.499999970E-4,2.612499986E-3
2.805997839E0,-1.374999993E-4,5.499999970E-4,3.712499980E-3
2.808498222E0,-1.099999994E-3,-5.499999970E-4,1.649999991E-3
2.810998532E0,9.624999948E-4,5.499999970E-4,2.612499986E-3
2.813499068E0,9.624999948E-4,5.499999970E-4,1.649999991E-3
2.815999364E0,-1.374999993E-4,5.499999970E-4,5.499999970E-4
2.818499671E0,-1.374999993E-4,-5.499999970E-4,2.612499986E-3
2.820999979E0,-1.099999994E-3,5.499999970E-4,2.612499986E-3
2.823500362E0,-1.099999994E-3,5.499999970E-4,5.499999970E-4
2.826000675E0,-1.099999994E-3,-5.499999970E-4,5.499999970E-4
2.828501212E0,-1.099999994E-3,5.499999970E-4,-5.499999970E-4
2.831001599E0,-1.374999993E-4,5.499999970E-4,1.649999991E-3
2.833501906E0,-1.099999994E-3,-5.499999970E-4,-5.499999970E-4
2.836002229E0,-1.374999993E-4,1.649999991E-3,-5.499999970E-4
2.838502537E0,-1.374999993E-4,5.499999970E-4,-5.499999970E-4
2.841003073E0,2.062499989E-3,-5.499999970E-4,5.499999970E-4
2.843503383E0,9.624999948E-4,5.499999970E-4,-1.649999991E-3
2.846003778E0,2.062499989E-3,5.499999970E-4,-5.499999970E-4
2.848504088E0,-1.374999993E-4,-5.499999970E-4,-1.649999991E-3
2.851004625E0,-1.374999993E-4,-5.499999970E-4,-1.649999991E-3
2.853504934E0,9.624999948E-4,-5.499999970E-4,-5.499999970E-4
2.856005242E0,-1.099999994E-3,5.499999970E-4,-5.499999970E-4
2.858505640E0,-1.099999994E-3,-5.499999970E-4,5.499999970E-4
2.861005949E0,-1.374999993E-4,-5.499999970E-4,5.499999970E-4
2.863506486E0,-1.099999994E-3,-1.649999991E-3,5.499999970E-4
2.866006795E0,2.062499989E-3,-5.499999970E-4,1.649999991E-3
2.868507093E0,9.624999948E-4,-5.499999970E-4,5.499999970E-4
2.871007476E0,-1.099999994E-3,5.499999970E-4,5.499999970E-4
2.873507785E0,-1.374999993E-4,-2.612499986E-3,1.649999991E-3
2.876008322E0,-1.374999993E-4,5.499999970E-4,1.649999991E-3
2.878508656E0,-1.374999993E-4,-1.649999991E-3,2.612499986E-3
2.881009038E0,9.624999948E-4,5.499999970E-4,2.612499986E-3
2.883509348E0,-1.374999993E-4,-5.499999970E-4,4.812499974E-3
2.886009656E0,9.624999948E-4,5.499999970E-4,4.812499974E-3
2.888510192E0,9.624999948E-4,-5.499999970E-4,3.712499980E-3
2.891010492E0,-1.374999993E-4,5.499999970E-4,5.912499968E-3
2.893510874E0,9.624999948E-4,5.499999970E-4,7.974999957E-3
2.896011184E0,9.624999948E-4,5.499999970E-4,4.812499974E-3
2.898511492E0,-1.099999994E-3,-5.499999970E-4,4.812499974E-3
2.901012023E0,-1.374999993E-4,5.499999970E-4,6.874999963E-3
2.903512333E0,-1.374999993E-4,5.499999970E-4,5.912499968E-3
2.906012716E0,9.624999948E-4,1.649999991E-3,7.974999957E-3
2.908513025E0,-1.374999993E-4,5.499999970E-4,5.912499968E-3
2.911013558E0,9.624999948E-4,1.649999991E-3,4.812499974E-3
2.913513867E0,-1.099999994E-3,5.499999970E-4,4.812499974E-3
2.916014250E0,-1.099999994E-3,-5.499999970E-4,5.912499968E-3
2.918514560E0,-1.374999993E-4,-5.499999970E-4,3.712499980E-3
2.921014868E0,-1.374999993E-4,-5.499999970E-4,4.812499974E-3
2.923515404E0,-1.374999993E-4,-5.499999970E-4,4.812499974E-3
2.926015714E0,-1.099999994E-3,-5.499999970E-4,1.649999991E-3
2.928516096E0,-1.374999993E-4,-5.499999970E-4,4.812499974E-3
2.931016406E0,9.624999948E-4,5.499999970E-4,2.612499986E-3
2.933516718E0,-1.374999993E-4,5.499999970E-4,2.612499986E-3
2.936017254E0,9.624999948E-4,5.499999970E-4,2.612499986E-3
2.938517564E0,-1.374999993E-4,5.499999970E-4,2.612499986E-3
2.941017872E0,9.624999948E-4,5.499999970E-4,2.612499986E-3
2.943518264E0,-1.374999993E-4,-5.499999970E-4,1.649999991E-3
2.946018574E0,-1.374999993E-4,5.499999970E-4,1.649999991E-3
2.948519110E0,-1.374999993E-4,5.499999970E-4,1.649999991E-3
2.951019420E0,-1.374999993E-4,5.499999970E-4,1.649999991E-3
2.953519809E0,9.624999948E-4,1.649999991E-3,5.499999970E-4
2.956020118E0,-1.374999993E-4,-5.499999970E-4,5.499999970E-4
2.958520655E0,9.624999948E-4,1.649999991E-3,5.499999970E-4
2.961020965E0,9.624999948E-4,5.499999970E-4,-1.649999991E-3
2.963521309E0,9.624999948E-4,5.499999970E-4,5.499999970E-4
2.966021692E0,-1.374999993E-4,-5.499999970E-4,5.499999970E-4
2.968522002E0,9.624999948E-4,5.499999970E-4,-1.649999991E-3
2.971022538E0,-1.374999993E-4,5.499999970E-4,-5.499999970E-4
2.973522848E0,9.624999948E-4,-5.499999970E-4,5.499999970E-4
2.976023273E0,9.624999948E-4,1.649999991E-3,-1.649999991E-3
2.978523583E0,-1.374999993E-4,5.499999970E-4,5.499999970E-4
2.981023891E0,9.624999948E-4,5.499999970E-4,-1.649999991E-3
2.983524198E0,9.624999948E-4,-5.499999970E-4,-5.499999970E-4
2.986024759E0,9.624999948E-4,1.649999991E-3,-5.499999970E-4
2.988525069E0,9.624999948E-4,5.499999970E-4,5.499999970E-4
2.991025451E0,9.624999948E-4,5.499999970E-4,5.499999970E-4
2.993525761E0,9.624999948E-4,-5.499999970E-4,-5.499999970E-4
2.996026297E0,9.624999948E-4,1.649999991E-3,5.499999970E-4
2.998526607E0,9.624999948E-4,5.499999970E-4,-5.499999970E-4
3.001026915E0,2.062499989E-3,5.499999970E-4,-5.499999970E-4
3.003527297E0,9.624999948E-4,5.499999970E-4,-5.499999970E-4
3.006027583E0,2.062499989E-3,1.649999991E-3,-5.499999970E-4
3.008528120E0,3.162499983E-3,5.499999970E-4,-5.499999970E-4
3.011028429E0,9.624999948E-4,-5.499999970E-4,5.499999970E-4
3.013528812E0,9.624999948E-4,5.499999970E-4,-1.649999991E-3
3.016029122E0,9.624999948E-4,-5.499999970E-4,-5.499999970E-4
3.018529658E0,9.624999948E-4,5.499999970E-4,1.649999991E-3
3.021029737E0,2.062499989E-3,1.649999991E-3,5.499999970E-4
3.023530273E0,9.624999948E-4,2.612499986E-3,2.612499986E-3
3.026030583E0,2.062499989E-3,1.649999991E-3,5.499999970E-4
3.028530966E0,2.062499989E-3,5.499999970E-4,5.499999970E-4
3.031031275E0,3.162499983E-3,1.649999991E-3,2.612499986E-3
3.033531812E0,2.062499989E-3,1.649999991E-3,3.712499980E-3
3.036032127E0,9.624999948E-4,1.649999991E-3,4.812499974E-3
3.038532509E0,2.062499989E-3,-5.499999970E-4,4.812499974E-3
3.041032819E0,2.062499989E-3,5.499999970E-4,6.874999963E-3
3.043533127E0,9.624999948E-4,5.499999970E-4,4.812499974E-3
3.046033668E0,-1.374999993E-4,5.499999970E-4,3.712499980E-3
3.048533978E0,9.624999948E-4,5.499999970E-4,7.974999957E-3
3.051034360E0,3.162499983E-3,1.649999991E-3,7.974999957E-3
3.053534670E0,2.062499989E-3,5.499999970E-4,7.974999957E-3
3.056035207E0,9.624999948E-4,1.649999991E-3,9.074999951E-3
3.058535525E0,9.624999948E-4,-5.499999970E-4,1.017499994E-2
3.061035833E0,-1.374999993E-4,5.499999970E-4,1.017499994E-2
3.063536216E0,9.624999948E-4,1.649999991E-3,7.974999957E-3
3.066036525E0,-1.374999993E-4,2.612499986E-3,7.974999957E-3
3.068537072E0,9.624999948E-4,5.499999970E-4,1.017499994E-2
3.071037381E0,3.162499983E-3,1.649999991E-3,9.074999951E-3
3.073537764E0,2.062499989E-3,1.649999991E-3,6.874999963E-3
3.076038074E0,9.624999948E-4,-5.499999970E-4,7.974999957E-3
3.078538610E0,9.624999948E-4,2.612499986E-3,6.874999963E-3
3.081038920E0,9.624999948E-4,5.499999970E-4,5.912499968E-3
3.083539228E0,2.062499989E-3,1.649999991E-3,7.974999957E-3
3.086039610E0,9.624999948E-4,5.499999970E-4,6.874999963E-3
3.088539911E0,2.062499989E-3,5.499999970E-4,5.912499968E-3
3.091040219E0,-1.374999993E-4,-1.649999991E-3,4.812499974E-3
3.093540755E0,9.624999948E-4,1.649999991E-3,6.874999963E-3
3.096041065E0,2.062499989E-3,-5.499999970E-4,2.612499986E-3
3.098541447E0,9.624999948E-4,5.499999970E-4,3.712499980E-3
3.101041732E0,2.062499989E-3,5.499999970E-4,1.649999991E-3
3.103542040E0,2.062499989E-3,-5.499999970E-4,5.499999970E-4
3.106042576E0,9.624999948E-4,-5.499999970E-4,-5.499999970E-4
3.108542886E0,9.624999948E-4,5.499999970E-4,-3.712499980E-3
3.111043269E0,-1.374999993E-4,5.499999970E-4,-3.712499980E-3
3.113543578E0,-1.374999993E-4,-5.499999970E-4,-5.774999969E-3
3.116044115E0,-1.374999993E-4,5.499999970E-4,-6.874999963E-3
3.118544425E0,9.624999948E-4,-5.499999970E-4,-7.974999957E-3
3.121044732E0,9.624999948E-4,-2.612499986E-3,-9.074999951E-3
3.123545106E0,9.624999948E-4,-5.499999970E-4,-7.974999957E-3
3.126045416E0,2.062499989E-3,-5.499999970E-4,-1.113750041E-2
3.128545952E0,2.062499989E-3,-5.499999970E-4,-1.113750041E-2
3.131046262E0,9.624999948E-4,-1.649999991E-3,-1.223750040E-2
3.133546629E0,2.062499989E-3,1.649999991E-3,-1.003750041E-2
3.136046939E0,3.162499983E-3,-5.499999970E-4,-1.429999992E-2
3.138547475E0,-1.374999993E-4,5.499999970E-4,-1.429999992E-2
3.141047785E0,9.624999948E-4,5.499999970E-4,-1.429999992E-2
3.143548064E0,-1.374999993E-4,5.499999970E-4,-1.333750039E-2
3.146048372E0,2.062499989E-3,-5.499999970E-4,-1.429999992E-2
3.148548754E0,9.624999948E-4,-5.499999970E-4,-1.429999992E-2
3.151049064E0,3.162499983E-3,5.499999970E-4,-1.649999991E-2
3.153549600E0,-1.374999993E-4,-5.499999970E-4,-1.429999992E-2
3.156049901E0,9.624999948E-4,5.499999970E-4,-1.539999992E-2
3.158550284E0,-1.374999993E-4,-1.649999991E-3,-1.539999992E-2
3.161050593E0,2.062499989E-3,5.499999970E-4,-1.429999992E-2
3.163550901E0,9.624999948E-4,-5.499999970E-4,-1.539999992E-2
3.166051447E0,9.624999948E-4,5.499999970E-4,-1.539999992E-2
3.168551756E0,2.062499989E-3,-5.499999970E-4,-1.649999991E-2
3.171052139E0,2.062499989E-3,-5.499999970E-4,-1.333750039E-2
3.173552449E0,2.062499989E-3,1.649999991E-3,-1.223750040E-2
3.176052985E0,2.062499989E-3,-5.499999970E-4,-1.003750041E-2
3.178553295E0,9.624999948E-4,-1.649999991E-3,-1.003750041E-2
3.181053602E0,-1.374999993E-4,5.499999970E-4,-1.003750041E-2
3.183553910E0,9.624999948E-4,-5.499999970E-4,-6.874999963E-3
3.186054298E0,2.062499989E-3,5.499999970E-4,-6.874999963E-3
3.188554607E0,2.062499989E-3,-5.499999970E-4,-5.774999969E-3
3.191055144E0,-1.374999993E-4,1.649999991E-3,-3.712499980E-3
3.193555454E0,9.624999948E-4,-1.649999991E-3,-3.712499980E-3
3.196055836E0,9.624999948E-4,5.499999970E-4,-3.712499980E-3
3.198556136E0,-1.374999993E-4,-5.499999970E-4,-2.612499986E-3
3.201056672E0,9.624999948E-4,-5.499999970E-4,-5.499999970E-4
3.203556982E0,9.624999948E-4,-5.499999970E-4,-1.649999991E-3
3.206057290E0,2.062499989E-3,-5.499999970E-4,5.499999970E-4
3.208557663E0,9.624999948E-4,-5.499999970E-4,5.499999970E-4
3.211057973E0,9.624999948E-4,5.499999970E-4,-5.499999970E-4
3.213558510E0,2.062499989E-3,-5.499999970E-4,2.612499986E-3
3.216058819E0,9.624999948E-4,-5.499999970E-4,3.712499980E-3
3.218559187E0,9.624999948E-4,-5.499999970E-4,2.612499986E-3
3.221059497E0,9.624999948E-4,-5.499999970E-4,4.812499974E-3
3.223559804E0,2.062499989E-3,-5.499999970E-4,4.812499974E-3
3.226060341E0,-1.374999993E-4,-5.499999970E-4,5.912499968E-3
3.228560636E0,9.624999948E-4,-1.649999991E-3,7.974999957E-3
3.231060944E0,2.062499989E-3,-1.649999991E-3,5.912499968E-3
3.233561327E0,3.162499983E-3,1.649999991E-3,6.874999963E-3
3.236061865E0,3.162499983E-3,-5.499999970E-4,7.974999957E-3
3.238562175E0,9.624999948E-4,5.499999970E-4,9.074999951E-3
3.241062473E0,2.062499989E-3,-5.499999970E-4,9.074999951E-3
3.243562780E0,9.624999948E-4,-1.649999991E-3,6.874999963E-3
3.246063163E0,9.624999948E-4,5.499999970E-4,6.874999963E-3
3.248563473E0,2.062499989E-3,5.499999970E-4,6.874999963E-3
3.251064009E0,9.624999948E-4,5.499999970E-4,5.912499968E-3
3.253564319E0,2.062499989E-3,5.499999970E-4,3.712499980E-3
3.256064701E0,-1.374999993E-4,-5.499999970E-4,6.874999963E-3
3.258565011E0,2.062499989E-3,-1.649999991E-3,3.712499980E-3
3.261065558E0,9.624999948E-4,-5.499999970E-4,3.712499980E-3
3.263565867E0,2.062499989E-3,-5.499999970E-4,2.612499986E-3
3.266066175E0,2.062499989E-3,1.649999991E-3,3.712499980E-3
3.268566558E0,9.624999948E-4,-5.499999970E-4,3.712499980E-3
3.271066881E0,9.624999948E-4,5.499999970E-4,3.712499980E-3
3.273567418E0,2.062499989E-3,-5.499999970E-4,3.712499980E-3
3.276067728E0,2.062499989E-3,-1.649999991E-3,2.612499986E-3
3.278568110E0,-1.374999993E-4,5.499999970E-4,2.612499986E-3
3.281068420E0,-1.374999993E-4,5.499999970E-4,3.712499980E-3
3.283568733E0,2.062499989E-3,-5.499999970E-4,4.812499974E-3
3.286069269E0,2.062499989E-3,5.499999970E-4,2.612499986E-3
3.288569579E0,9.624999948E-4,-5.499999970E-4,4.812499974E-3
3.291069886E0,9.624999948E-4,1.649999991E-3,2.612499986E-3
3.293570299E0,9.624999948E-4,5.499999970E-4,2.612499986E-3
3.296070609E0,2.062499989E-3,5.499999970E-4,3.712499980E-3
3.298571145E0,2.062499989E-3,-5.499999970E-4,2.612499986E-3
3.301071455E0,2.062499989E-3,1.649999991E-3,3.712499980E-3
3.303571763E0,2.062499989E-3,1.649999991E-3,2.612499986E-3
3.306072145E0,2.062499989E-3,5.499999970E-4,5.499999970E-4
3.308572455E0,-1.374999993E-4,5.499999970E-4,2.612499986E-3
3.311072991E0,-1.374999993E-4,5.499999970E-4,3.712499980E-3
3.313573305E0,2.062499989E-3,5.499999970E-4,3.712499980E-3
3.316073688E0,2.062499989E-3,5.499999970E-4,2.612499986E-3
3.318573997E0,2.062499989E-3,5.499999970E-4,4.812499974E-3
3.321074534E0,2.062499989E-3,5.499999970E-4,4.812499974E-3
3.323574623E0,9.624999948E-4,1.649999991E-3,4.812499974E-3
3.326075159E0,3.162499983E-3,1.649999991E-3,5.912499968E-3
3.328575469E0,2.062499989E-3,1.649999991E-3,3.712499980E-3
3.331075852E0,3.162499983E-3,5.499999970E-4,4.812499974E-3
3.333576161E0,2.062499989E-3,1.649999991E-3,4.812499974E-3
3.336076698E0,2.062499989E-3,5.499999970E-4,2.612499986E-3
3.338577007E0,2.062499989E-3,5.499999970E-4,1.649999991E-3
3.341077390E0,2.062499989E-3,1.649999991E-3,5.499999970E-4
3.343577700E0,3.162499983E-3,-5.499999970E-4,-1.649999991E-3
3.346078021E0,9.624999948E-4,5.499999970E-4,-1.649999991E-3
3.348578558E0,9.624999948E-4,-5.499999970E-4,-3.712499980E-3
3.351078945E0,2.062499989E-3,5.499999970E-4,-2.612499986E-3
3.353579252E0,2.062499989E-3,5.499999970E-4,-3.712499980E-3
3.356079560E0,3.162499983E-3,-5.499999970E-4,-4.812499974E-3
3.358580082E0,9.624999948E-4,-1.649999991E-3,-2.612499986E-3
3.361080392E0,3.162499983E-3,5.499999970E-4,-4.812499974E-3
3.363580775E0,2.062499989E-3,-5.499999970E-4,-2.612499986E-3
3.366081084E0,2.062499989E-3,1.649999991E-3,-3.712499980E-3
3.368581397E0,9.624999948E-4,-5.499999970E-4,-3.712499980E-3
3.371081934E0,2.062499989E-3,1.649999991E-3,-1.649999991E-3
3.373582243E0,2.062499989E-3,-5.499999970E-4,1.649999991E-3
3.376082626E0,9.624999948E-4,1.649999991E-3,2.612499986E-3
3.378582950E0,2.062499989E-3,-5.499999970E-4,2.612499986E-3
3.381083486E0,9.624999948E-4,5.499999970E-4,3.712499980E-3
3.383583796E0,2.062499989E-3,-1.649999991E-3,4.812499974E-3
3.386084103E0,3.162499983E-3,1.649999991E-3,5.912499968E-3
3.388584411E0,2.062499989E-3,5.499999970E-4,7.974999957E-3
3.391084794E0,9.624999948E-4,1.649999991E-3,9.074999951E-3
3.393585103E0,2.062499989E-3,-5.499999970E-4,1.113750041E-2
3.396085640E0,3.162499983E-3,-5.499999970E-4,1.113750041E-2
3.398585950E0,-1.374999993E-4,1.649999991E-3,1.333750039E-2
3.401086346E0,2.062499989E-3,5.499999970E-4,1.539999992E-2
3.403586656E0,2.062499989E-3,2.612499986E-3,1.649999991E-2
3.406086964E0,2.062499989E-3,5.499999970E-4,1.966249943E-2
3.408587500E0,3.162499983E-3,-5.499999970E-4,2.076249942E-2
3.411087834E0,3.162499983E-3,-5.499999970E-4,2.282499894E-2
3.413588216E0,3.162499983E-3,1.649999991E-3,2.392499894E-2
3.416088526E0,3.162499983E-3,5.499999970E-4,2.612499893E-2
3.418589063E0,9.624999948E-4,1.649999991E-3,2.708750032E-2
3.421089348E0,9.624999948E-4,1.649999991E-3,2.818750031E-2
3.423589656E0,9.624999948E-4,1.649999991E-3,2.928750031E-2
3.426090039E0,2.062499989E-3,5.499999970E-4,3.135000169E-2
3.428590348E0,2.062499989E-3,5.499999970E-4,3.038750030E-2
3.431090871E0,3.162499983E-3,5.499999970E-4,3.038750030E-2
3.433591180E0,2.062499989E-3,5.499999970E-4,3.244999796E-2
3.436091563E0,3.162499983E-3,5.499999970E-4,3.135000169E-2
3.438591873E0,9.624999948E-4,-5.499999970E-4,3.244999796E-2
3.441092423E0,9.624999948E-4,1.649999991E-3,3.038750030E-2
3.443592733E0,9.624999948E-4,-5.499999970E-4,3.135000169E-2
3.446093041E0,3.162499983E-3,1.649999991E-3,2.928750031E-2
3.448593348E0,2.062499989E-3,5.499999970E-4,2.928750031E-2
3.451093731E0,2.062499989E-3,1.649999991E-3,2.818750031E-2
3.453594041E0,2.062499989E-3,5.499999970E-4,2.928750031E-2
3.456094577E0,9.624999948E-4,5.499999970E-4,2.708750032E-2
3.458594887E0,3.162499983E-3,1.649999991E-3,2.818750031E-2
3.461095269E0,2.062499989E-3,1.649999991E-3,2.502499893E-2
3.463595565E0,4.124999978E-3,5.499999970E-4,2.282499894E-2
3.466095873E0,3.162499983E-3,1.649999991E-3,2.282499894E-2
3.468596409E0,3.162499983E-3,1.649999991E-3,2.186249942E-2
3.471096719E0,2.062499989E-3,1.649999991E-3,1.966249943E-2
3.473597102E0,2.062499989E-3,1.649999991E-3,1.869999990E-2
3.476097430E0,3.162499983E-3,5.499999970E-4,1.759999990E-2
3.478597967E0,2.062499989E-3,5.499999970E-4,1.333750039E-2
3.481098277E0,3.162499983E-3,1.649999991E-3,9.074999951E-3
3.483598659E0,4.124999978E-3,1.649999991E-3,6.874999963E-3
3.486098882E0,2.062499989E-3,5.499999970E-4,4.812499974E-3
3.488599265E0,3.162499983E-3,-5.499999970E-4,2.612499986E-3
3.491099574E0,9.624999948E-4,5.499999970E-4,5.499999970E-4
3.493600111E0,4.124999978E-3,5.499999970E-4,-2.612499986E-3
3.496100420E0,3.162499983E-3,5.499999970E-4,-5.774999969E-3
3.498600803E0,2.062499989E-3,-5.499999970E-4,-6.874999963E-3
3.501101113E0,9.624999948E-4,5.499999970E-4,-1.223750040E-2
3.503601649E0,9.624999948E-4,5.499999970E-4,-1.223750040E-2
3.506101950E0,3.162499983E-3,1.649999991E-3,-1.539999992E-2
3.508602258E0,2.062499989E-3,-5.499999970E-4,-1.649999991E-2
3.511102640E0,2.062499989E-3,5.499999970E-4,-1.759999990E-2
3.513602950E0,2.062499989E-3,5.499999970E-4,-2.186249942E-2
3.516103486E0,2.062499989E-3,5.499999970E-4,-2.186249942E-2
3.518603796E0,2.062499989E-3,-5.499999970E-4,-2.502499893E-2
3.521104179E0,3.162499983E-3,-5.499999970E-4,-2.612499893E-2
3.523604488E0,9.624999948E-4,5.499999970E-4,-2.818750031E-2
3.526104796E0,3.162499983E-3,5.499999970E-4,-3.024999984E-2
3.528605357E0,2.062499989E-3,-5.499999970E-4,-3.024999984E-2
3.531105666E0,2.062499989E-3,-5.499999970E-4,-3.451250121E-2
3.533606049E0,2.062499989E-3,5.499999970E-4,-3.355000168E-2
3.536106359E0,3.162499983E-3,-5.499999970E-4,-3.561250120E-2
3.538606866E0,2.062499989E-3,1.649999991E-3,-3.671250120E-2
3.541107176E0,3.162499983E-3,1.649999991E-3,-3.671250120E-2
3.543607483E0,9.624999948E-4,5.499999970E-4,-3.877500072E-2
3.546107791E0,2.062499989E-3,-1.649999991E-3,-3.781250119E-2
3.548608150E0,9.624999948E-4,1.649999991E-3,-3.877500072E-2
3.551108459E0,2.062499989E-3,-5.499999970E-4,-3.561250120E-2
3.553608996E0,9.624999948E-4,-5.499999970E-4,-3.671250120E-2
3.556109306E0,2.062499989E-3,5.499999970E-4,-3.561250120E-2
3.558609697E0,2.062499989E-3,1.649999991E-3,-3.451250121E-2
3.561110007E0,2.062499989E-3,5.499999970E-4,-3.451250121E-2
3.563610315E0,3.162499983E-3,1.649999991E-3,-3.135000169E-2
3.566110851E0,3.162499983E-3,-5.499999970E-4,-3.135000169E-2
3.568611161E0,3.162499983E-3,-5.499999970E-4,-3.135000169E-2
3.571111543E0,2.062499989E-3,-2.612499986E-3,-2.818750031E-2
3.573611853E0,2.062499989E-3,-5.499999970E-4,-2.818750031E-2
3.576112390E0,2.062499989E-3,5.499999970E-4,-2.708750032E-2
3.578612699E0,2.062499989E-3,5.499999970E-4,-2.502499893E-2
3.581113078E0,2.062499989E-3,-5.499999970E-4,-2.612499893E-2
3.583613388E0,2.062499989E-3,5.499999970E-4,-2.282499894E-2
3.586113695E0,2.062499989E-3,-1.649999991E-3,-2.282499894E-2
3.588614232E0,3.162499983E-3,1.649999991E-3,-2.282499894E-2
3.591114565E0,2.062499989E-3,5.499999970E-4,-2.076249942E-2
3.593614948E0,3.162499983E-3,-5.499999970E-4,-2.076249942E-2
3.596115258E0,3.162499983E-3,5.499999970E-4,-1.759999990E-2
3.598615794E0,9.624999948E-4,5.499999970E-4,-1.539999992E-2
3.601116104E0,2.062499989E-3,5.499999970E-4,-1.429999992E-2
3.603616431E0,3.162499983E-3,1.649999991E-3,-1.223750040E-2
3.606116738E0,2.062499989E-3,1.649999991E-3,-9.074999951E-3
3.608617121E0,3.162499983E-3,5.499999970E-4,-9.074999951E-3
3.611117431E0,3.162499983E-3,1.649999991E-3,-5.774999969E-3
3.613617962E0,2.062499989E-3,5.499999970E-4,-4.812499974E-3
3.616118272E0,3.162499983E-3,1.649999991E-3,-2.612499986E-3
3.618618654E0,3.162499983E-3,5.499999970E-4,-1.649999991E-3
3.621118964E0,9.624999948E-4,5.499999970E-4,5.499999970E-4
3.623619253E0,2.062499989E-3,-1.649999991E-3,2.612499986E-3
3.626119789E0,3.162499983E-3,1.649999991E-3,4.812499974E-3
3.628620099E0,2.062499989E-3,-5.499999970E-4,5.912499968E-3
3.631120482E0,9.624999948E-4,1.649999991E-3,5.912499968E-3
3.633620791E0,3.162499983E-3,-5.499999970E-4,6.874999963E-3
3.636121103E0,9.624999948E-4,-1.649999991E-3,9.074999951E-3
3.638621640E0,2.062499989E-3,5.499999970E-4,7.974999957E-3
3.641121949E0,9.624999948E-4,-5.499999970E-4,1.113750041E-2
3.643622332E0,2.062499989E-3,-5.499999970E-4,1.333750039E-2
3.646122638E0,4.124999978E-3,5.499999970E-4,1.333750039E-2
3.648623174E0,9.624999948E-4,1.649999991E-3,1.443750039E-2
3.651123484E0,2.062499989E-3,-5.499999970E-4,1.649999991E-2
3.653623866E0,2.062499989E-3,1.649999991E-3,1.759999990E-2
3.656124185E0,3.162499983E-3,-1.649999991E-3,1.869999990E-2
3.658624721E0,3.162499983E-3,1.649999991E-3,2.076249942E-2
3.661125031E0,3.162499983E-3,-5.499999970E-4,1.966249943E-2
3.663625339E0,3.162499983E-3,1.649999991E-3,1.966249943E-2
3.666125633E0,9.624999948E-4,5.499999970E-4,2.186249942E-2
3.668626015E0,2.062499989E-3,1.649999991E-3,1.869999990E-2
3.671126325E0,2.062499989E-3,-5.499999970E-4,2.186249942E-2
3.673626861E0,9.624999948E-4,5.499999970E-4,2.076249942E-2
3.676127185E0,2.062499989E-3,-1.649999991E-3,2.076249942E-2
3.678627568E0,2.062499989E-3,-5.499999970E-4,2.076249942E-2
3.681127877E0,3.162499983E-3,-5.499999970E-4,2.076249942E-2
3.683628185E0,3.162499983E-3,5.499999970E-4,1.869999990E-2
3.686128722E0,9.624999948E-4,-5.499999970E-4,1.966249943E-2
3.688629041E0,3.162499983E-3,-5.499999970E-4,1.966249943E-2
3.691129424E0,3.162499983E-3,5.499999970E-4,1.869999990E-2
3.693629734E0,3.162499983E-3,2.612499986E-3,2.076249942E-2
3.696130041E0,3.162499983E-3,5.499999970E-4,1.966249943E-2
3.698630539E0,4.124999978E-3,5.499999970E-4,2.076249942E-2
3.701130848E0,3.162499983E-3,1.649999991E-3,2.186249942E-2
3.703631156E0,2.062499989E-3,-5.499999970E-4,2.186249942E-2
3.706131539E0,3.162499983E-3,1.649999991E-3,2.186249942E-2
3.708631853E0,2.062499989E-3,5.499999970E-4,2.282499894E-2
3.711132390E0,3.162499983E-3,1.649999991E-3,2.392499894E-2
3.713632700E0,3.162499983E-3,1.649999991E-3,2.392499894E-2
3.716133082E0,9.624999948E-4,1.649999991E-3,2.502499893E-2
3.718633407E0,3.162499983E-3,1.649999991E-3,2.502499893E-2
3.721133715E0,3.162499983E-3,5.499999970E-4,2.282499894E-2
3.723634251E0,4.124999978E-3,5.499999970E-4,2.392499894E-2
3.726134561E0,9.624999948E-4,-1.649999991E-3,2.392499894E-2
3.728634943E0,2.062499989E-3,1.649999991E-3,2.392499894E-2
3.731135243E0,2.062499989E-3,-5.499999970E-4,2.282499894E-2
3.733635780E0,2.062499989E-3,5.499999970E-4,2.282499894E-2
3.736136089E0,4.124999978E-3,-1.649999991E-3,2.392499894E-2
3.738636472E0,2.062499989E-3,-5.499999970E-4,2.502499893E-2
3.741136772E0,2.062499989E-3,-5.499999970E-4,2.282499894E-2
3.743637079E0,9.624999948E-4,-5.499999970E-4,2.282499894E-2
3.746137387E0,2.062499989E-3,-5.499999970E-4,2.282499894E-2
3.748637923E0,2.062499989E-3,1.649999991E-3,2.282499894E-2
3.751138229E0,9.624999948E-4,-5.499999970E-4,2.282499894E-2
3.753638612E0,9.624999948E-4,5.499999970E-4,2.282499894E-2
3.756138921E0,2.062499989E-3,-5.499999970E-4,2.282499894E-2
3.758639458E0,9.624999948E-4,5.499999970E-4,2.186249942E-2
3.761139768E0,3.162499983E-3,-5.499999970E-4,1.966249943E-2
3.763640075E0,3.162499983E-3,5.499999970E-4,2.076249942E-2
3.766140458E0,2.062499989E-3,1.649999991E-3,2.076249942E-2
3.768640768E0,2.062499989E-3,5.499999970E-4,1.759999990E-2
3.771141304E0,9.624999948E-4,-5.499999970E-4,1.869999990E-2
3.773641609E0,2.062499989E-3,-5.499999970E-4,1.539999992E-2
3.776141991E0,3.162499983E-3,-1.649999991E-3,1.333750039E-2
3.778642301E0,2.062499989E-3,5.499999970E-4,1.443750039E-2
3.781142838E0,3.162499983E-3,-1.649999991E-3,1.333750039E-2
3.783643152E0,2.062499989E-3,5.499999970E-4,1.113750041E-2
3.786143460E0,2.062499989E-3,-1.649999991E-3,1.113750041E-2
3.788643843E0,3.162499983E-3,5.499999970E-4,9.074999951E-3
3.791144152E0,2.062499989E-3,-1.649999991E-3,1.113750041E-2
3.793644693E0,9.624999948E-4,5.499999970E-4,1.113750041E-2
3.796145003E0,2.062499989E-3,-1.649999991E-3,9.074999951E-3
3.798645310E0,9.624999948E-4,-5.499999970E-4,1.017499994E-2
3.801145693E0,9.624999948E-4,-5.499999970E-4,9.074999951E-3
3.803645994E0,2.062499989E-3,-5.499999970E-4,7.974999957E-3
3.806146530E0,2.062499989E-3,-1.649999991E-3,6.874999963E-3
3.808646840E0,3.162499983E-3,-5.499999970E-4,7.974999957E-3
3.811147147E0,2.062499989E-3,-1.649999991E-3,6.874999963E-3
3.813647501E0,3.162499983E-3,5.499999970E-4,5.912499968E-3
3.816147811E0,3.162499983E-3,-5.499999970E-4,4.812499974E-3
3.818648347E0,2.062499989E-3,5.499999970E-4,2.612499986E-3
3.821148657E0,2.062499989E-3,-1.649999991E-3,1.649999991E-3
3.823648965E0,2.062499989E-3,5.499999970E-4,-5.499999970E-4
3.826149342E0,2.062499989E-3,5.499999970E-4,-1.649999991E-3
3.828649652E0,3.162499983E-3,5.499999970E-4,-3.712499980E-3
3.831150188E0,3.162499983E-3,5.499999970E-4,-6.874999963E-3
3.833650498E0,3.162499983E-3,5.499999970E-4,-7.974999957E-3
3.836150910E0,3.162499983E-3,-5.499999970E-4,-6.874999963E-3
3.838651219E0,3.162499983E-3,5.499999970E-4,-1.003750041E-2
3.841151527E0,2.062499989E-3,1.649999991E-3,-1.003750041E-2
3.843651835E0,2.062499989E-3,-5.499999970E-4,-1.223750040E-2
3.846152356E0,2.062499989E-3,-5.499999970E-4,-1.429999992E-2
3.848652666E0,2.062499989E-3,5.499999970E-4,-1.539999992E-2
3.851153049E0,3.162499983E-3,5.499999970E-4,-1.759999990E-2
3.853653358E0,-1.374999993E-4,1.649999991E-3,-1.966249943E-2
3.856153876E0,9.624999948E-4,1.649999991E-3,-2.282499894E-2
3.858654185E0,2.062499989E-3,-1.649999991E-3,-2.392499894E-2
3.861154493E0,2.062499989E-3,5.499999970E-4,-2.708750032E-2
3.863654876E0,-1.374999993E-4,-2.612499986E-3,-3.024999984E-2
3.866155209E0,-1.374999993E-4,1.649999991E-3,-3.135000169E-2
3.868655746E0,9.624999948E-4,-5.499999970E-4,-3.355000168E-2
3.871156056E0,9.624999948E-4,5.499999970E-4,-3.451250121E-2
3.873656438E0,3.162499983E-3,-5.499999970E-4,-3.671250120E-2
3.876156748E0,2.062499989E-3,5.499999970E-4,-3.671250120E-2
3.878657298E0,2.062499989E-3,-5.499999970E-4,-3.987500072E-2
3.881157608E0,2.062499989E-3,5.499999970E-4,-3.987500072E-2
3.883657916E0,2.062499989E-3,-5.499999970E-4,-3.987500072E-2
3.886158298E0,2.062499989E-3,1.649999991E-3,-3.987500072E-2
3.888658608E0,9.624999948E-4,-2.612499986E-3,-4.097500071E-2
3.891159145E0,2.062499989E-3,5.499999970E-4,-4.097500071E-2
3.893659454E0,2.062499989E-3,-5.499999970E-4,-3.987500072E-2
3.896159837E0,2.062499989E-3,-5.499999970E-4,-3.877500072E-2
3.898660147E0,3.162499983E-3,-5.499999970E-4,-3.877500072E-2
3.901160454E0,2.062499989E-3,5.499999970E-4,-3.671250120E-2
3.903660991E0,3.162499983E-3,5.499999970E-4,-3.671250120E-2
3.906161300E0,2.062499989E-3,5.499999970E-4,-3.561250120E-2
3.908661608E0,-1.374999993E-4,5.499999970E-4,-3.671250120E-2
3.911162000E0,9.624999948E-4,-5.499999970E-4,-3.451250121E-2
3.913662309E0,9.624999948E-4,5.499999970E-4,-3.355000168E-2
3.916162846E0,-1.374999993E-4,-5.499999970E-4,-3.561250120E-2
3.918663156E0,9.624999948E-4,-1.649999991E-3,-3.451250121E-2
3.921163454E0,9.624999948E-4,-5.499999970E-4,-3.024999984E-2
3.923663837E0,9.624999948E-4,-2.612499986E-3,-3.135000169E-2
3.926164147E0,9.624999948E-4,5.499999970E-4,-3.024999984E-2
3.928664683E0,9.624999948E-4,-5.499999970E-4,-2.818750031E-2
3.931164979E0,9.624999948E-4,-5.499999970E-4,-2.708750032E-2
3.933665361E0,2.062499989E-3,-5.499999970E-4,-2.502499893E-2
3.936165671E0,-1.374999993E-4,-5.499999970E-4,-2.502499893E-2
3.938665979E0,9.624999948E-4,-5.499999970E-4,-2.392499894E-2
3.941166500E0,-1.374999993E-4,-1.649999991E-3,-2.282499894E-2
3.943666810E0,9.624999948E-4,5.499999970E-4,-1.759999990E-2
3.946167193E0,9.624999948E-4,-5.499999970E-4,-1.856249943E-2
3.948667502E0,9.624999948E-4,-1.649999991E-3,-1.649999991E-2
3.951168039E0,2.062499989E-3,5.499999970E-4,-1.539999992E-2
3.953668335E0,3.162499983E-3,5.499999970E-4,-1.223750040E-2
3.956168717E0,2.062499989E-3,-5.499999970E-4,-1.113750041E-2
3.958668950E0,-1.374999993E-4,-1.649999991E-3,-1.333750039E-2
3.961169333E0,9.624999948E-4,5.499999970E-4,-1.003750041E-2
3.963669642E0,2.062499989E-3,1.649999991E-3,-7.974999957E-3
3.966170179E0,2.062499989E-3,1.649999991E-3,-4.812499974E-3
3.968670488E0,2.062499989E-3,5.499999970E-4,-3.712499980E-3
3.971170871E0,2.062499989E-3,1.649999991E-3,-5.499999970E-4
3.973671170E0,9.624999948E-4,5.499999970E-4,1.649999991E-3
3.976171706E0,2.062499989E-3,1.649999991E-3,4.812499974E-3
3.978672016E0,2.062499989E-3,5.499999970E-4,6.874999963E-3
3.981172324E0,2.062499989E-3,1.649999991E-3,1.017499994E-2
3.983672706E0,9.624999948E-4,5.499999970E-4,1.223750040E-2
3.986173016E0,2.062499989E-3,5.499999970E-4,1.333750039E-2
3.988673552E0,9.624999948E-4,2.612499986E-3,1.649999991E-2
3.991173862E0,2.062499989E-3,5.499999970E-4,1.966249943E-2
3.993674245E0,9.624999948E-4,1.649999991E-3,2.186249942E-2
3.996174569E0,9.624999948E-4,1.649999991E-3,2.282499894E-2
3.998674877E0,3.162499983E-3,5.499999970E-4,2.708750032E-2
4.001175185E0,9.624999948E-4,5.499999970E-4,2.818750031E-2
4.003675721E0,2.062499989E-3,5.499999970E-4,3.038750030E-2
4.006176007E0,9.624999948E-4,-5.499999970E-4,3.244999796E-2
4.008676390E0,3.162499983E-3,5.499999970E-4,3.355000168E-2
4.011176699E0,2.062499989E-3,1.649999991E-3,3.464999795E-2
4.013677236E0,9.624999948E-4,-5.499999970E-4,3.244999796E-2
4.016177545E0,2.062499989E-3,1.649999991E-3,3.671250120E-2
4.018677928E0,2.062499989E-3,-5.499999970E-4,3.671250120E-2
4.021178238E0,2.062499989E-3,-5.499999970E-4,3.891250119E-2
4.023678545E0,3.162499983E-3,1.649999991E-3,3.891250119E-2
4.026179082E0,3.162499983E-3,5.499999970E-4,4.097500071E-2
4.028679425E0,9.624999948E-4,5.499999970E-4,4.207500070E-2
4.031179807E0,9.624999948E-4,5.499999970E-4,4.317500070E-2
4.033680117E0,9.624999948E-4,-1.649999991E-3,4.523750022E-2
4.036180425E0,2.062499989E-3,5.499999970E-4,4.523750022E-2
4.038680947E0,2.062499989E-3,1.649999991E-3,4.633750021E-2
4.041181257E0,9.624999948E-4,5.499999970E-4,4.523750022E-2
4.043681639E0,-1.374999993E-4,5.499999970E-4,4.633750021E-2
4.046181949E0,9.624999948E-4,2.612499986E-3,4.743750021E-2
4.048682257E0,9.624999948E-4,5.499999970E-4,4.949999973E-2
4.051182807E0,9.624999948E-4,1.649999991E-3,4.839999974E-2
4.053683117E0,9.624999948E-4,1.649999991E-3,4.949999973E-2
4.056183425E0,9.624999948E-4,5.499999970E-4,5.059999973E-2
4.058683807E0,2.062499989E-3,1.649999991E-3,4.949999973E-2
4.061184117E0,9.624999948E-4,5.499999970E-4,4.743750021E-2
4.063684653E0,9.624999948E-4,1.649999991E-3,4.839999974E-2
4.066184963E0,2.062499989E-3,3.712499980E-3,4.743750021E-2
4.068685346E0,2.062499989E-3,-5.499999970E-4,4.839999974E-2
4.071185665E0,2.062499989E-3,2.612499986E-3,4.949999973E-2
4.073685973E0,2.062499989E-3,1.649999991E-3,4.839999974E-2
4.076186510E0,3.162499983E-3,1.649999991E-3,4.949999973E-2
4.078686819E0,9.624999948E-4,1.649999991E-3,5.059999973E-2
4.081187202E0,9.624999948E-4,5.499999970E-4,4.839999974E-2
4.083687512E0,9.624999948E-4,5.499999970E-4,4.949999973E-2
4.086188048E0,-1.374999993E-4,1.649999991E-3,4.839999974E-2
4.088688358E0,2.062499989E-3,5.499999970E-4,4.633750021E-2
4.091188740E0,2.062499989E-3,5.499999970E-4,4.317500070E-2
4.093689064E0,3.162499983E-3,1.649999991E-3,4.317500070E-2
4.096189372E0,9.624999948E-4,5.499999970E-4,3.891250119E-2
4.098689908E0,3.162499983E-3,1.649999991E-3,3.781250119E-2
4.101190218E0,9.624999948E-4,1.649999991E-3,3.355000168E-2
4.103690606E0,2.062499989E-3,1.649999991E-3,2.818750031E-2
4.106190915E0,-1.374999993E-4,5.499999970E-4,2.392499894E-2
4.108691452E0,-1.374999993E-4,5.499999970E-4,1.966249943E-2
4.111191531E0,9.624999948E-4,5.499999970E-4,1.539999992E-2
4.113692072E0,9.624999948E-4,1.649999991E-3,1.113750041E-2
4.116192382E0,-1.374999993E-4,1.649999991E-3,9.074999951E-3
4.118692765E0,9.624999948E-4,5.499999970E-4,3.712499980E-3
4.121193074E0,2.062499989E-3,2.612499986E-3,-1.649999991E-3
4.123693611E0,-1.374999993E-4,-5.499999970E-4,-3.712499980E-3
4.126193905E0,2.062499989E-3,2.612499986E-3,-5.774999969E-3
4.128694288E0,-1.374999993E-4,-5.499999970E-4,-9.074999951E-3
4.131194598E0,-1.374999993E-4,1.649999991E-3,-1.333750039E-2
4.133694905E0,-1.099999994E-3,2.612499986E-3,-1.539999992E-2
4.136195457E0,-1.374999993E-4,-5.499999970E-4,-1.856249943E-2
4.138695767E0,2.062499989E-3,5.499999970E-4,-2.186249942E-2
4.141196149E0,2.062499989E-3,5.499999970E-4,-2.502499893E-2
4.143696459E0,9.624999948E-4,5.499999970E-4,-2.928750031E-2
4.146196985E0,9.624999948E-4,5.499999970E-4,-2.928750031E-2
4.148697295E0,-1.374999993E-4,1.649999991E-3,-3.244999796E-2
4.151197603E0,-1.374999993E-4,-5.499999970E-4,-3.671250120E-2
4.153697985E0,-1.099999994E-3,-5.499999970E-4,-3.671250120E-2
4.156198310E0,-1.374999993E-4,-1.649999991E-3,-4.097500071E-2
4.158698618E0,-1.374999993E-4,5.499999970E-4,-4.207500070E-2
4.161199154E0,-1.099999994E-3,-1.649999991E-3,-4.523750022E-2
4.163699464E0,-1.374999993E-4,-5.499999970E-4,-4.413750023E-2
4.166199832E0,9.624999948E-4,5.499999970E-4,-4.729999974E-2
4.168700141E0,-1.099999994E-3,5.499999970E-4,-4.729999974E-2
4.171200449E0,-1.374999993E-4,-5.499999970E-4,-4.839999974E-2
4.173700985E0,-1.099999994E-3,5.499999970E-4,-4.729999974E-2
4.176201295E0,-1.374999993E-4,-5.499999970E-4,-4.729999974E-2
4.178701678E0,-1.374999993E-4,5.499999970E-4,-4.949999973E-2
4.181201987E0,-1.099999994E-3,-5.499999970E-4,-4.729999974E-2
4.183702524E0,9.624999948E-4,5.499999970E-4,-4.949999973E-2
4.186202834E0,-1.099999994E-3,-5.499999970E-4,-4.839999974E-2
4.188703151E0,9.624999948E-4,-5.499999970E-4,-4.729999974E-2
4.191203534E0,9.624999948E-4,-5.499999970E-4,-5.059999973E-2
4.193703844E0,-1.374999993E-4,5.499999970E-4,-5.156249925E-2
4.196204380E0,-1.374999993E-4,5.499999970E-4,-5.059999973E-2
4.198704661E0,-1.374999993E-4,1.649999991E-3,-5.266249925E-2
4.201205043E0,-1.099999994E-3,-5.499999970E-4,-5.156249925E-2
4.203705353E0,9.624999948E-4,5.499999970E-4,-5.266249925E-2
4.206205890E0,-1.374999993E-4,-1.649999991E-3,-5.156249925E-2
4.208705982E0,-1.099999994E-3,5.499999970E-4,-4.949999973E-2
4.211206519E0,9.624999948E-4,-1.649999991E-3,-4.949999973E-2
4.213706829E0,-1.374999993E-4,5.499999970E-4,-4.949999973E-2
4.216207211E0,9.624999948E-4,5.499999970E-4,-4.949999973E-2
4.218707492E0,9.624999948E-4,1.649999991E-3,-4.729999974E-2
4.221208028E0,9.624999948E-4,-5.499999970E-4,-5.059999973E-2
4.223708338E0,-1.099999994E-3,1.649999991E-3,-4.839999974E-2
4.226208721E0,9.624999948E-4,1.649999991E-3,-4.839999974E-2
4.228709035E0,-1.374999993E-4,5.499999970E-4,-4.729999974E-2
4.231209343E0,9.624999948E-4,5.499999970E-4,-4.949999973E-2
4.233709880E0,-1.374999993E-4,-5.499999970E-4,-4.839999974E-2
4.236210189E0,9.624999948E-4,-5.499999970E-4,-4.949999973E-2
4.238710572E0,9.624999948E-4,5.499999970E-4,-5.059999973E-2
4.241210872E0,-1.099999994E-3,5.499999970E-4,-4.949999973E-2
4.243711408E0,-1.374999993E-4,5.499999970E-4,-5.059999973E-2
4.246211718E0,-1.099999994E-3,-5.499999970E-4,-5.059999973E-2
4.248712026E0,9.624999948E-4,1.649999991E-3,-5.059999973E-2
4.251212404E0,-1.374999993E-4,-5.499999970E-4,-5.156249925E-2
4.253712714E0,-1.374999993E-4,-1.649999991E-3,-4.949999973E-2
4.256213250E0,-1.099999994E-3,-5.499999970E-4,-4.839999974E-2
4.258713560E0,-1.374999993E-4,5.499999970E-4,-4.839999974E-2
4.261213928E0,9.624999948E-4,5.499999970E-4,-4.839999974E-2
4.263714237E0,-1.374999993E-4,5.499999970E-4,-4.633750021E-2
4.266214545E0,-1.099999994E-3,-5.499999970E-4,-4.303750023E-2
4.268714853E0,9.624999948E-4,-5.499999970E-4,-4.097500071E-2
4.271215384E0,-1.099999994E-3,5.499999970E-4,-3.877500072E-2
4.273715694E0,-1.099999994E-3,5.499999970E-4,-3.451250121E-2
4.276216077E0,-1.099999994E-3,5.499999970E-4,-3.355000168E-2
4.278716386E0,-1.374999993E-4,5.499999970E-4,-3.135000169E-2
4.281216923E0,-1.374999993E-4,-1.649999991E-3,-2.818750031E-2
4.283717242E0,-1.374999993E-4,5.499999970E-4,-2.502499893E-2
4.286217550E0,9.624999948E-4,-5.499999970E-4,-2.186249942E-2
4.288717933E0,2.062499989E-3,-1.649999991E-3,-1.966249943E-2
4.291218242E0,-1.099999994E-3,-5.499999970E-4,-1.759999990E-2
4.293718779E0,-1.374999993E-4,-1.649999991E-3,-1.429999992E-2
4.296219118E0,2.062499989E-3,5.499999970E-4,-9.074999951E-3
4.298719425E0,9.624999948E-4,-1.649999991E-3,-4.812499974E-3
4.301219808E0,2.062499989E-3,-5.499999970E-4,5.499999970E-4
4.303720118E0,-1.374999993E-4,-2.612499986E-3,4.812499974E-3
4.306220654E0,-1.374999993E-4,-5.499999970E-4,7.974999957E-3
4.308720964E0,9.624999948E-4,-1.649999991E-3,1.223750040E-2
4.311221346E0,2.062499989E-3,5.499999970E-4,1.759999990E-2
4.313721656E0,2.062499989E-3,5.499999970E-4,2.282499894E-2
4.316222207E0,2.062499989E-3,-1.649999991E-3,2.612499893E-2
4.318722516E0,2.062499989E-3,5.499999970E-4,3.135000169E-2
4.321222899E0,4.124999978E-3,5.499999970E-4,3.464999795E-2
4.323723132E0,3.162499983E-3,-5.499999970E-4,3.891250119E-2
4.326223533E0,3.162499983E-3,5.499999970E-4,4.413750023E-2
4.328723843E0,2.062499989E-3,5.499999970E-4,4.743750021E-2
4.331224379E0,3.162499983E-3,5.499999970E-4,5.059999973E-2
4.333724689E0,3.162499983E-3,-5.499999970E-4,5.376249924E-2
4.336225058E0,3.162499983E-3,1.649999991E-3,5.692499876E-2
4.338725367E0,2.062499989E-3,5.499999970E-4,5.912499875E-2
4.341225904E0,4.124999978E-3,2.612499986E-3,6.228749827E-2
4.343726214E0,3.162499983E-3,-5.499999970E-4,6.338749826E-2
4.346226521E0,3.162499983E-3,5.499999970E-4,6.764999777E-2
4.348726918E0,2.062499989E-3,1.649999991E-3,6.764999777E-2
4.351227228E0,3.162499983E-3,5.499999970E-4,6.971249729E-2
4.353727764E0,3.162499983E-3,1.649999991E-3,6.971249729E-2
4.356228074E0,3.162499983E-3,5.499999970E-4,7.081250101E-2
4.358728442E0,3.162499983E-3,2.612499986E-3,7.081250101E-2
4.361228752E0,4.124999978E-3,5.499999970E-4,7.081250101E-2
4.363729060E0,5.224999972E-3,1.649999991E-3,6.861250103E-2
4.366229367E0,3.162499983E-3,2.612499986E-3,6.971249729E-2
4.368729904E0,4.124999978E-3,5.499999970E-4,6.861250103E-2
4.371230223E0,4.124999978E-3,1.649999991E-3,6.861250103E-2
4.373730605E0,3.162499983E-3,-5.499999970E-4,6.655000150E-2
4.376230915E0,4.124999978E-3,1.649999991E-3,6.764999777E-2
4.378731451E0,3.162499983E-3,5.499999970E-4,6.435000151E-2
4.381231752E0,3.162499983E-3,1.649999991E-3,6.435000151E-2
4.383732060E0,3.162499983E-3,1.649999991E-3,6.228749827E-2
4.386232442E0,4.124999978E-3,1.649999991E-3,5.912499875E-2
4.388732752E0,4.124999978E-3,-5.499999970E-4,5.692499876E-2
4.391233303E0,4.124999978E-3,2.612499986E-3,5.912499875E-2
4.393733612E0,4.124999978E-3,1.649999991E-3,5.582499877E-2
4.396233995E0,3.162499983E-3,5.499999970E-4,5.376249924E-2
4.398734305E0,3.162499983E-3,5.499999970E-4,5.156249925E-2
4.401234612E0,4.124999978E-3,-5.499999970E-4,5.266249925E-2
4.403735159E0,2.062499989E-3,2.612499986E-3,4.949999973E-2
4.406235469E0,3.162499983E-3,-5.499999970E-4,4.839999974E-2
4.408735851E0,4.124999978E-3,-5.499999970E-4,4.839999974E-2
4.411236161E0,3.162499983E-3,-1.649999991E-3,4.743750021E-2
4.413736469E0,3.162499983E-3,5.499999970E-4,4.413750023E-2
4.416237005E0,4.124999978E-3,-5.499999970E-4,4.413750023E-2
4.418737315E0,4.124999978E-3,2.612499986E-3,4.317500070E-2
4.421237622E0,3.162499983E-3,-5.499999970E-4,4.097500071E-2
4.423738000E0,2.062499989E-3,-5.499999970E-4,3.671250120E-2
4.426238310E0,3.162499983E-3,5.499999970E-4,3.671250120E-2
4.428738846E0,2.062499989E-3,5.499999970E-4,3.244999796E-2
4.431239156E0,3.162499983E-3,5.499999970E-4,3.135000169E-2
4.433739538E0,2.062499989E-3,5.499999970E-4,2.818750031E-2
4.436239853E0,4.124999978E-3,-5.499999970E-4,2.282499894E-2
4.438740161E0,2.062499989E-3,-1.649999991E-3,2.186249942E-2
4.441240697E0,3.162499983E-3,5.499999970E-4,1.649999991E-2
4.443741007E0,2.062499989E-3,5.499999970E-4,1.333750039E-2
4.446241409E0,9.624999948E-4,1.649999991E-3,1.223750040E-2
4.448741718E0,2.062499989E-3,-5.499999970E-4,9.074999951E-3
4.451242255E0,9.624999948E-4,5.499999970E-4,4.812499974E-3
4.453742565E0,2.062499989E-3,1.649999991E-3,2.612499986E-3
4.456242952E0,2.062499989E-3,5.499999970E-4,1.649999991E-3
4.458743262E0,2.062499989E-3,-5.499999970E-4,-2.612499986E-3
4.461243570E0,2.062499989E-3,1.649999991E-3,-3.712499980E-3
4.463744106E0,-1.374999993E-4,5.499999970E-4,-7.974999957E-3
4.466244416E0,9.624999948E-4,-5.499999970E-4,-1.223750040E-2
4.468744798E0,9.624999948E-4,1.649999991E-3,-1.429999992E-2
4.471245108E0,9.624999948E-4,-5.499999970E-4,-1.649999991E-2
4.473745416E0,9.624999948E-4,5.499999970E-4,-1.966249943E-2
4.476245723E0,9.624999948E-4,5.499999970E-4,-2.392499894E-2
4.478746269E0,2.062499989E-3,-1.649999991E-3,-2.708750032E-2
4.481246579E0,-1.374999993E-4,5.499999970E-4,-3.024999984E-2
4.483746961E0,9.624999948E-4,1.649999991E-3,-3.355000168E-2
4.486247271E0,-1.374999993E-4,1.649999991E-3,-3.561250120E-2
4.488747807E0,2.062499989E-3,1.649999991E-3,-3.781250119E-2
4.491248117E0,9.624999948E-4,-5.499999970E-4,-4.207500070E-2
4.493748500E0,-1.374999993E-4,5.499999970E-4,-4.303750023E-2
4.496248809E0,-1.374999993E-4,-1.649999991E-3,-4.523750022E-2
4.498749117E0,9.624999948E-4,5.499999970E-4,-4.633750021E-2
4.501249640E0,-1.374999993E-4,5.499999970E-4,-4.839999974E-2
4.503749949E0,-1.374999993E-4,1.649999991E-3,-5.059999973E-2
4.506250332E0,-1.099999994E-3,-5.499999970E-4,-5.156249925E-2
4.508750642E0,9.624999948E-4,5.499999970E-4,-5.059999973E-2
4.511250963E0,9.624999948E-4,-5.499999970E-4,-5.486249924E-2
4.513751500E0,9.624999948E-4,-5.499999970E-4,-5.486249924E-2
4.516251809E0,-2.199999988E-3,-5.499999970E-4,-5.582499877E-2
4.518752117E0,-1.374999993E-4,5.499999970E-4,-5.692499876E-2
4.521252495E0,-1.374999993E-4,-5.499999970E-4,-5.582499877E-2
4.523752804E0,-1.374999993E-4,-5.499999970E-4,-5.582499877E-2
4.526253341E0,-1.374999993E-4,5.499999970E-4,-5.582499877E-2
4.528753651E0,-1.099999994E-3,5.499999970E-4,-5.692499876E-2
4.531253949E0,-1.374999993E-4,-2.612499986E-3,-5.802499875E-2
4.533754332E0,-2.199999988E-3,1.649999991E-3,-5.802499875E-2
4.536254642E0,-1.374999993E-4,-5.499999970E-4,-5.692499876E-2
4.538755178E0,9.624999948E-4,1.649999991E-3,-5.582499877E-2
4.541255488E0,-1.374999993E-4,-1.649999991E-3,-5.898749828E-2
4.543755874E0,-1.374999993E-4,-5.499999970E-4,-5.486249924E-2
4.546256184E0,-3.299999982E-3,5.499999970E-4,-5.486249924E-2
4.548756721E0,-1.099999994E-3,-5.499999970E-4,-5.266249925E-2
4.551257030E0,-1.099999994E-3,-1.649999991E-3,-5.266249925E-2
4.553757338E0,-3.299999982E-3,5.499999970E-4,-4.839999974E-2
4.556257721E0,-1.099999994E-3,-1.649999991E-3,-4.839999974E-2
4.558758030E0,-2.199999988E-3,5.499999970E-4,-4.633750021E-2
4.561258567E0,-2.199999988E-3,-1.649999991E-3,-4.413750023E-2
4.563758886E0,-1.099999994E-3,-5.499999970E-4,-4.207500070E-2
4.566259269E0,-1.099999994E-3,-5.499999970E-4,-4.097500071E-2
4.568759502E0,-1.099999994E-3,5.499999970E-4,-3.877500072E-2
4.571259885E0,-2.199999988E-3,-1.649999991E-3,-3.781250119E-2
4.573760194E0,-1.099999994E-3,5.499999970E-4,-3.561250120E-2
4.576260726E0,-1.374999993E-4,5.499999970E-4,-3.561250120E-2
4.578761035E0,-1.374999993E-4,1.649999991E-3,-3.451250121E-2
4.581261418E0,9.624999948E-4,-5.499999970E-4,-3.355000168E-2
4.583761728E0,-1.374999993E-4,1.649999991E-3,-2.818750031E-2
4.586262030E0,-1.099999994E-3,5.499999970E-4,-3.024999984E-2
4.588762567E0,-1.099999994E-3,-1.649999991E-3,-2.818750031E-2
4.591262877E0,-1.374999993E-4,-5.499999970E-4,-2.612499893E-2
4.593763259E0,-1.099999994E-3,-5.499999970E-4,-2.502499893E-2
4.596263564E0,-1.374999993E-4,1.649999991E-3,-2.392499894E-2
4.598764100E0,-1.099999994E-3,5.499999970E-4,-2.076249942E-2
4.601264410E0,-1.099999994E-3,2.612499986E-3,-1.966249943E-2
4.603764793E0,9.624999948E-4,1.649999991E-3,-1.649999991E-2
4.606265107E0,-1.099999994E-3,5.499999970E-4,-1.649999991E-2
4.608765415E0,9.624999948E-4,5.499999970E-4,-1.539999992E-2
4.611265952E0,9.624999948E-4,1.649999991E-3,-1.539999992E-2
4.613766261E0,-1.099999994E-3,-5.499999970E-4,-1.223750040E-2
4.616266644E0,9.624999948E-4,1.649999991E-3,-1.223750040E-2
4.618766940E0,-1.099999994E-3,-5.499999970E-4,-1.003750041E-2
4.621267476E0,-1.374999993E-4,5.499999970E-4,-1.003750041E-2
4.623767786E0,9.624999948E-4,5.499999970E-4,-7.974999957E-3
4.626268093E0,9.624999948E-4,-5.499999970E-4,-6.874999963E-3
4.628768471E0,-1.374999993E-4,5.499999970E-4,-5.774999969E-3
4.631268781E0,9.624999948E-4,-5.499999970E-4,-4.812499974E-3
4.633769317E0,-1.099999994E-3,5.499999970E-4,-2.612499986E-3
4.636269627E0,-1.374999993E-4,1.649999991E-3,1.649999991E-3
4.638769916E0,-1.099999994E-3,5.499999970E-4,3.712499980E-3
4.641270298E0,-1.374999993E-4,5.499999970E-4,7.974999957E-3
4.643770608E0,-1.374999993E-4,5.499999970E-4,7.974999957E-3
4.646270916E0,-1.374999993E-4,-5.499999970E-4,1.113750041E-2
4.648771428E0,-1.374999993E-4,5.499999970E-4,1.649999991E-2
4.651271738E0,9.624999948E-4,5.499999970E-4,1.966249943E-2
4.653772120E0,9.624999948E-4,3.712499980E-3,2.282499894E-2
4.656272430E0,2.062499989E-3,-1.649999991E-3,2.392499894E-2
4.658772738E0,9.624999948E-4,-5.499999970E-4,2.928750031E-2
4.661273289E0,2.062499989E-3,5.499999970E-4,3.135000169E-2
4.663773599E0,9.624999948E-4,5.499999970E-4,3.671250120E-2
4.666273982E0,9.624999948E-4,5.499999970E-4,3.987500072E-2
4.668774291E0,3.162499983E-3,1.649999991E-3,4.207500070E-2
4.671274589E0,2.062499989E-3,1.649999991E-3,4.413750023E-2
4.673775125E0,3.162499983E-3,1.649999991E-3,4.633750021E-2
4.676275512E0,9.624999948E-4,1.649999991E-3,4.839999974E-2
4.678775820E0,3.162499983E-3,5.499999970E-4,4.743750021E-2
4.681276122E0,2.062499989E-3,-5.499999970E-4,4.839999974E-2
4.683776430E0,3.162499983E-3,5.499999970E-4,5.156249925E-2
4.686276967E0,9.624999948E-4,5.499999970E-4,5.156249925E-2
4.688777276E0,2.062499989E-3,1.649999991E-3,5.376249924E-2
4.691277659E0,2.062499989E-3,2.612499986E-3,5.156249925E-2
4.693777974E0,3.162499983E-3,1.649999991E-3,5.376249924E-2
4.696278510E0,2.062499989E-3,2.612499986E-3,5.486249924E-2
4.698778820E0,2.062499989E-3,5.499999970E-4,5.486249924E-2
4.701279128E0,2.062499989E-3,5.499999970E-4,5.266249925E-2
4.703779539E0,2.062499989E-3,5.499999970E-4,5.156249925E-2
4.706279849E0,9.624999948E-4,5.499999970E-4,5.059999973E-2
4.708780385E0,9.624999948E-4,1.649999991E-3,4.839999974E-2
4.711280695E0,2.062499989E-3,-1.649999991E-3,4.317500070E-2
4.713781083E0,9.624999948E-4,1.649999991E-3,4.413750023E-2
4.716281392E0,9.624999948E-4,-5.499999970E-4,3.987500072E-2
4.718781700E0,2.062499989E-3,5.499999970E-4,3.781250119E-2
4.721282008E0,2.062499989E-3,5.499999970E-4,3.561250120E-2
4.723782553E0,3.162499983E-3,1.649999991E-3,3.038750030E-2
4.726282863E0,2.062499989E-3,-1.649999991E-3,2.818750031E-2
4.728783246E0,3.162499983E-3,5.499999970E-4,2.502499893E-2
4.731283555E0,2.062499989E-3,5.499999970E-4,2.186249942E-2
4.733784092E0,2.062499989E-3,5.499999970E-4,1.966249943E-2
4.736284406E0,9.624999948E-4,5.499999970E-4,1.649999991E-2
4.738784714E0,-1.374999993E-4,5.499999970E-4,1.333750039E-2
4.741285097E0,2.062499989E-3,1.649999991E-3,1.113750041E-2
4.743785406E0,9.624999948E-4,5.499999970E-4,1.223750040E-2
4.746285929E0,2.062499989E-3,5.499999970E-4,7.974999957E-3
4.748786239E0,9.624999948E-4,-5.499999970E-4,6.874999963E-3
4.751286621E0,9.624999948E-4,1.649999991E-3,6.874999963E-3
4.753786931E0,2.062499989E-3,-5.499999970E-4,3.712499980E-3
4.756287239E0,-1.099999994E-3,2.612499986E-3,4.812499974E-3
4.758787775E0,-1.374999993E-4,5.499999970E-4,3.712499980E-3
4.761288085E0,9.624999948E-4,5.499999970E-4,5.499999970E-4
4.763788467E0,-1.374999993E-4,1.649999991E-3,5.499999970E-4
4.766288777E0,2.062499989E-3,5.499999970E-4,5.499999970E-4
4.768789104E0,2.062499989E-3,1.649999991E-3,-1.649999991E-3
4.771289640E0,-1.374999993E-4,-5.499999970E-4,-5.499999970E-4
4.773789950E0,9.624999948E-4,5.499999970E-4,-5.499999970E-4
4.776290333E0,-1.099999994E-3,5.499999970E-4,1.649999991E-3
4.778790647E0,-1.374999993E-4,5.499999970E-4,3.712499980E-3
4.781291184E0,-1.374999993E-4,-5.499999970E-4,1.649999991E-3
4.783791493E0,-1.374999993E-4,-1.649999991E-3,3.712499980E-3
4.786291801E0,-1.374999993E-4,-1.649999991E-3,3.712499980E-3
4.788792193E0,-1.374999993E-4,5.499999970E-4,3.712499980E-3
4.791292502E0,-1.374999993E-4,-5.499999970E-4,1.649999991E-3
4.793792810E0,9.624999948E-4,5.499999970E-4,3.712499980E-3
4.796293347E0,-1.374999993E-4,5.499999970E-4,2.612499986E-3
4.798793647E0,-1.374999993E-4,5.499999970E-4,2.612499986E-3
4.801294030E0,-1.374999993E-4,5.499999970E-4,-1.649999991E-3
4.803794340E0,-1.374999993E-4,-5.499999970E-4,-3.712499980E-3
4.806294876E0,-2.199999988E-3,5.499999970E-4,-4.812499974E-3
4.808795186E0,-1.374999993E-4,-5.499999970E-4,-9.074999951E-3
4.811295512E0,-1.374999993E-4,-5.499999970E-4,-1.223750040E-2
4.813795895E0,-1.374999993E-4,-5.499999970E-4,-1.333750039E-2
4.816296205E0,9.624999948E-4,-5.499999970E-4,-1.649999991E-2
4.818796512E0,-1.374999993E-4,1.649999991E-3,-1.759999990E-2
4.821297063E0,9.624999948E-4,5.499999970E-4,-1.966249943E-2
4.823797450E0,9.624999948E-4,1.649999991E-3,-2.282499894E-2
4.826297757E0,9.624999948E-4,5.499999970E-4,-2.392499894E-2
4.828798294E0,9.624999948E-4,5.499999970E-4,-2.502499893E-2
4.831298368E0,-1.374999993E-4,-5.499999970E-4,-2.818750031E-2
4.833798904E0,-1.374999993E-4,5.499999970E-4,-3.024999984E-2
4.836299214E0,9.624999948E-4,-5.499999970E-4,-3.135000169E-2
4.838799596E0,-1.099999994E-3,5.499999970E-4,-3.451250121E-2
4.841299911E0,-1.099999994E-3,5.499999970E-4,-3.355000168E-2
4.843800448E0,-2.199999988E-3,5.499999970E-4,-3.671250120E-2
4.846300757E0,-1.374999993E-4,-5.499999970E-4,-3.781250119E-2
4.848801065E0,-1.374999993E-4,5.499999970E-4,-3.877500072E-2
4.851301466E0,-1.099999994E-3,5.499999970E-4,-4.207500070E-2
4.853801775E0,-1.374999993E-4,-5.499999970E-4,-4.097500071E-2
4.856302312E0,-2.199999988E-3,5.499999970E-4,-4.207500070E-2
4.858802622E0,-1.099999994E-3,5.499999970E-4,-4.207500070E-2
4.861303004E0,-1.374999993E-4,-5.499999970E-4,-4.303750023E-2
4.863803314E0,-1.374999993E-4,-5.499999970E-4,-4.303750023E-2
4.866303622E0,-2.199999988E-3,-5.499999970E-4,-4.303750023E-2
4.868804158E0,-1.099999994E-3,-5.499999970E-4,-4.413750023E-2
4.871304468E0,-1.099999994E-3,5.499999970E-4,-4.303750023E-2
4.873804850E0,-1.099999994E-3,-5.499999970E-4,-4.097500071E-2
4.876305160E0,-1.099999994E-3,5.499999970E-4,-4.097500071E-2
4.878805696E0,-1.099999994E-3,-5.499999970E-4,-4.097500071E-2
4.881306006E0,9.624999948E-4,-5.499999970E-4,-3.877500072E-2
4.883806319E0,-1.374999993E-4,-5.499999970E-4,-3.671250120E-2
4.886306701E0,-1.099999994E-3,-5.499999970E-4,-3.451250121E-2
4.888807011E0,9.624999948E-4,5.499999970E-4,-3.244999796E-2
4.891307319E0,-1.099999994E-3,1.649999991E-3,-3.244999796E-2
4.893807855E0,9.624999948E-4,-5.499999970E-4,-2.818750031E-2
4.896308165E0,-1.374999993E-4,5.499999970E-4,-2.612499893E-2
4.898808548E0,-1.374999993E-4,-1.649999991E-3,-2.502499893E-2
4.901308857E0,9.624999948E-4,1.649999991E-3,-2.186249942E-2
4.903809381E0,9.624999948E-4,5.499999970E-4,-1.966249943E-2
4.906309691E0,9.624999948E-4,-5.499999970E-4,-1.759999990E-2
4.908809998E0,-1.099999994E-3,-1.649999991E-3,-1.539999992E-2
4.911310381E0,-1.374999993E-4,-5.499999970E-4,-1.429999992E-2
4.913810709E0,-1.099999994E-3,-1.649999991E-3,-9.074999951E-3
4.916311245E0,9.624999948E-4,1.649999991E-3,-7.974999957E-3
4.918811555E0,9.624999948E-4,5.499999970E-4,-6.874999963E-3
4.921311937E0,-1.099999994E-3,-5.499999970E-4,-2.612499986E-3
4.923812261E0,9.624999948E-4,-5.499999970E-4,-1.649999991E-3
4.926312569E0,9.624999948E-4,5.499999970E-4,1.649999991E-3
4.928813105E0,-1.099999994E-3,-5.499999970E-4,4.812499974E-3
4.931313415E0,9.624999948E-4,5.499999970E-4,6.874999963E-3
4.933813719E0,9.624999948E-4,-1.649999991E-3,1.113750041E-2
4.936314101E0,9.624999948E-4,5.499999970E-4,1.223750040E-2
4.938814411E0,3.162499983E-3,5.499999970E-4,1.443750039E-2
4.941314947E0,2.062499989E-3,5.499999970E-4,1.649999991E-2
4.943815257E0,9.624999948E-4,5.499999970E-4,1.539999992E-2
4.946315565E0,9.624999948E-4,5.499999970E-4,1.869999990E-2
4.948815947E0,9.624999948E-4,1.649999991E-3,2.076249942E-2
4.951316257E0,3.162499983E-3,5.499999970E-4,2.186249942E-2
4.953816794E0,2.062499989E-3,-5.499999970E-4,2.392499894E-2
4.956317093E0,9.624999948E-4,1.649999991E-3,2.392499894E-2
4.958817476E0,9.624999948E-4,2.612499986E-3,2.502499893E-2
4.961317786E0,2.062499989E-3,1.649999991E-3,2.502499893E-2
4.963818093E0,3.162499983E-3,1.649999991E-3,2.708750032E-2
4.966318401E0,2.062499989E-3,1.649999991E-3,2.818750031E-2
4.968818937E0,3.162499983E-3,5.499999970E-4,2.818750031E-2
4.971319324E0,2.062499989E-3,1.649999991E-3,3.135000169E-2
4.973819632E0,3.162499983E-3,1.649999991E-3,3.244999796E-2
4.976320168E0,4.124999978E-3,1.649999991E-3,3.038750030E-2
4.978820483E0,2.062499989E-3,5.499999970E-4,3.355000168E-2
4.981320791E0,2.062499989E-3,5.499999970E-4,3.561250120E-2
4.983821173E0,3.162499983E-3,1.649999991E-3,3.464999795E-2
4.986321483E0,3.162499983E-3,5.499999970E-4,3.561250120E-2
4.988822014E0,2.062499989E-3,5.499999970E-4,3.464999795E-2
4.991322324E0,4.124999978E-3,3.712499980E-3,3.671250120E-2
4.993822707E0,3.162499983E-3,1.649999991E-3,3.671250120E-2
4.996322940E0,9.624999948E-4,1.649999991E-3,3.781250119E-2
4.998823312E0,2.062499989E-3,-5.499999970E-4,3.671250120E-2
5.001323622E0,2.062499989E-3,-5.499999970E-4,3.781250119E-2
5.003824158E0,3.162499983E-3,5.499999970E-4,3.781250119E-2
5.006324468E0,3.162499983E-3,5.499999970E-4,3.671250120E-2
5.008824856E0,2.062499989E-3,5.499999970E-4,3.781250119E-2
5.011325165E0,3.162499983E-3,1.649999991E-3,3.561250120E-2
5.013825702E0,3.162499983E-3,1.649999991E-3,3.561250120E-2
5.016326011E0,9.624999948E-4,5.499999970E-4,3.561250120E-2
5.018826334E0,-1.374999993E-4,5.499999970E-4,3.355000168E-2
5.021326717E0,2.062499989E-3,5.499999970E-4,3.355000168E-2
5.023827027E0,-1.374999993E-4,-5.499999970E-4,3.244999796E-2
5.026327563E0,2.062499989E-3,5.499999970E-4,3.135000169E-2
5.028827868E0,2.062499989E-3,-5.499999970E-4,2.928750031E-2
5.031328175E0,3.162499983E-3,5.499999970E-4,2.928750031E-2
5.033828483E0,2.062499989E-3,-5.499999970E-4,2.708750032E-2
5.036328866E0,2.062499989E-3,1.649999991E-3,2.392499894E-2
5.038829151E0,2.062499989E-3,5.499999970E-4,2.392499894E-2
5.041329688E0,9.624999948E-4,1.649999991E-3,2.186249942E-2
5.043829998E0,2.062499989E-3,-5.499999970E-4,1.966249943E-2
5.046330380E0,9.624999948E-4,5.499999970E-4,1.649999991E-2
5.048830675E0,9.624999948E-4,-5.499999970E-4,1.649999991E-2
5.051331211E0,9.624999948E-4,1.649999991E-3,1.333750039E-2
5.053831521E0,2.062499989E-3,5.499999970E-4,1.113750041E-2
5.056331829E0,9.624999948E-4,-5.499999970E-4,7.974999957E-3
5.058832197E0,-1.374999993E-4,5.499999970E-4,7.974999957E-3
5.061332507E0,9.624999948E-4,5.499999970E-4,5.912499968E-3
5.063833044E0,9.624999948E-4,5.499999970E-4,3.712499980E-3
5.066333353E0,9.624999948E-4,5.499999970E-4,1.649999991E-3
5.068833736E0,-1.374999993E-4,5.499999970E-4,1.649999991E-3
5.071334046E0,9.624999948E-4,-5.499999970E-4,-2.612499986E-3
5.073834353E0,-1.099999994E-3,1.649999991E-3,-2.612499986E-3
5.076334890E0,9.624999948E-4,-5.499999970E-4,-3.712499980E-3
5.078835199E0,-1.374999993E-4,-5.499999970E-4,-6.874999963E-3
5.081335487E0,9.624999948E-4,5.499999970E-4,-6.874999963E-3
5.083835870E0,9.624999948E-4,5.499999970E-4,-1.003750041E-2
5.086336179E0,9.624999948E-4,5.499999970E-4,-1.003750041E-2
