"Time (s)","Gyroscope x (rad/s)","Gyroscope y (rad/s)","Gyroscope z (rad/s)"
6.196058000E-3,-4.633900523E-2,1.299622655E-1,4.261057824E-2
8.194027000E-3,-4.633900523E-2,1.299622655E-1,4.261057824E-2
1.019281600E-2,-4.633900523E-2,1.299622655E-1,4.261057824E-2
1.219141000E-2,-4.633900523E-2,1.299622655E-1,4.261057824E-2
1.418914400E-2,-4.633900523E-2,1.299622655E-1,4.261057824E-2
1.618746400E-2,-4.633900523E-2,1.299622655E-1,4.261057824E-2
1.818465200E-2,-4.633900523E-2,1.299622655E-1,4.261057824E-2
2.018250300E-2,-4.633900523E-2,1.299622655E-1,4.261057824E-2
2.218090200E-2,-4.633900523E-2,1.299622655E-1,4.261057824E-2
2.417894900E-2,-4.633900523E-2,1.299622655E-1,4.261057824E-2
2.617773800E-2,-4.633900523E-2,1.299622655E-1,4.261057824E-2
2.817723000E-2,-4.633900523E-2,1.299622655E-1,4.261057824E-2
3.017605800E-2,-4.633900523E-2,1.299622655E-1,4.261057824E-2
3.217547200E-2,-4.633900523E-2,1.299622655E-1,4.261057824E-2
3.417512100E-2,-4.633900523E-2,1.299622655E-1,4.261057824E-2
3.617433900E-2,-4.633900523E-2,1.299622655E-1,4.261057824E-2
3.817437800E-2,-9.587380104E-3,2.609897964E-2,-2.130528912E-3
4.017312800E-2,-2.663161140E-3,3.568635881E-2,-3.195793368E-3
4.217246400E-2,2.130528912E-3,3.621899337E-2,-5.858954508E-3
4.417164400E-2,6.924218964E-3,4.261057824E-2,-6.391586736E-3
4.617098000E-2,9.587380104E-3,4.048004746E-2,-1.012001187E-2
4.817098000E-2,1.278317347E-2,3.728425503E-2,-1.384843793E-2
5.017012100E-2,1.491370238E-2,3.515372798E-2,-1.597896591E-2
5.217019900E-2,1.651159860E-2,3.036003746E-2,-1.810949668E-2
5.417066700E-2,1.970739290E-2,2.237055451E-2,-2.077265643E-2
5.617019900E-2,1.651159860E-2,1.597896591E-2,-2.183792181E-2
5.816933900E-2,4.261057824E-3,1.065264456E-2,-2.130528912E-2
6.016855800E-2,-1.065264456E-3,6.391586736E-3,-2.183792181E-2
6.216808900E-2,0.000000000E0,-2.663161140E-3,-1.970739290E-2
6.416734700E-2,5.326322280E-4,-1.012001187E-2,-2.024002373E-2
6.616660500E-2,0.000000000E0,-1.704423130E-2,-2.077265643E-2
6.816629200E-2,-2.130528912E-3,-2.343581803E-2,-2.183792181E-2
7.016629200E-2,-1.065264456E-3,-2.822950855E-2,-2.290318534E-2
7.216629200E-2,2.663161140E-3,-3.249056637E-2,-2.343581803E-2
7.416644900E-2,4.261057824E-3,-3.249056637E-2,-2.396845073E-2
7.616637100E-2,3.195793368E-3,-3.302319720E-2,-2.290318534E-2
7.816539400E-2,-1.065264456E-3,-2.929477207E-2,-2.343581803E-2
8.016391000E-2,-2.663161140E-3,-2.237055451E-2,-2.343581803E-2
8.216215200E-2,-5.326322280E-4,-1.970739290E-2,-2.237055451E-2
8.416027700E-2,1.065264456E-3,-1.651159860E-2,-2.503371425E-2
8.615898800E-2,2.663161140E-3,-1.171790902E-2,-2.450108156E-2
8.815777700E-2,4.793690052E-3,-8.522115648E-3,-2.609897964E-2
9.015633200E-2,5.326322280E-3,-3.195793368E-3,-2.929477207E-2
9.215578500E-2,5.858954508E-3,0.000000000E0,-2.982740477E-2
9.415519900E-2,6.924218964E-3,3.728425596E-3,-2.716424316E-2
9.615441700E-2,5.326322280E-3,6.924218964E-3,-2.609897964E-2
9.815223000E-2,4.793690052E-3,1.225054078E-2,-2.663161233E-2
1.001510580E-1,5.326322280E-3,1.438106969E-2,-2.663161233E-2
1.021505890E-1,6.391586736E-3,1.544633508E-2,-2.716424316E-2
1.041501210E-1,5.326322280E-3,1.331580617E-2,-2.822950855E-2
1.061490270E-1,4.793690052E-3,1.225054078E-2,-2.716424316E-2
1.081479330E-1,6.924218964E-3,9.587380104E-3,-2.876213938E-2
1.101476210E-1,5.858954508E-3,7.989482954E-3,-2.663161233E-2
1.121474640E-1,6.924218964E-3,6.391586736E-3,-2.450108156E-2
1.141471520E-1,4.793690052E-3,2.130528912E-3,-2.450108156E-2
1.161471910E-1,2.130528912E-3,3.195793368E-3,-2.290318534E-2
1.181455110E-1,2.130528912E-3,-1.597896684E-3,-2.290318534E-2
1.201453940E-1,1.597896684E-3,-5.326322280E-3,-2.343581803E-2
1.221454330E-1,5.326322280E-4,-1.012001187E-2,-2.237055451E-2
1.241449250E-1,3.195793368E-3,-1.225054078E-2,-2.396845073E-2
1.261448080E-1,2.663161140E-3,-1.225054078E-2,-2.450108156E-2
1.281437530E-1,3.195793368E-3,-1.704423130E-2,-2.450108156E-2
1.301430500E-1,2.130528912E-3,-1.864212751E-2,-2.237055451E-2
1.321424250E-1,2.663161140E-3,-1.704423130E-2,-2.503371425E-2
1.341424640E-1,2.130528912E-3,-1.704423130E-2,-2.077265643E-2
1.361424640E-1,-5.326322280E-4,-1.384843793E-2,-2.237055451E-2
1.381420740E-1,0.000000000E0,-1.065264456E-2,-2.290318534E-2
1.401419960E-1,0.000000000E0,-1.171790902E-2,-2.290318534E-2
1.421419960E-1,2.130528912E-3,-9.054748341E-3,-2.290318534E-2
1.441422300E-1,3.728425596E-3,-5.858954508E-3,-2.130528912E-2
1.461428160E-1,4.261057824E-3,-4.793690052E-3,-2.024002373E-2
1.481421520E-1,4.261057824E-3,-1.597896684E-3,-1.810949668E-2
1.501409800E-1,5.326322280E-3,3.195793368E-3,-1.491370238E-2
1.521410190E-1,4.793690052E-3,6.391586736E-3,-1.065264456E-2
1.541404330E-1,2.663161140E-3,7.989482954E-3,-7.989482954E-3
1.561397300E-1,5.326322280E-4,1.118527725E-2,-6.391586736E-3
1.581394570E-1,3.195793368E-3,1.331580617E-2,-5.326322280E-3
1.601387140E-1,2.130528912E-3,1.065264456E-2,-2.130528912E-3
1.621376600E-1,4.793690052E-3,1.012001187E-2,-1.597896684E-3
1.641366050E-1,5.326322280E-3,1.012001187E-2,3.195793368E-3
1.661364100E-1,5.858954508E-3,7.989482954E-3,5.326322280E-3
1.681362530E-1,3.195793368E-3,4.793690052E-3,6.391586736E-3
1.701354330E-1,2.130528912E-3,2.663161140E-3,9.587380104E-3
1.721344170E-1,0.000000000E0,0.000000000E0,1.171790902E-2
1.741336750E-1,-2.130528912E-3,-2.130528912E-3,1.331580617E-2
1.761337530E-1,0.000000000E0,-6.391586736E-3,1.491370238E-2
1.781334020E-1,-5.326322280E-4,-9.587380104E-3,1.544633508E-2
1.801330890E-1,1.065264456E-3,-1.384843793E-2,1.704423130E-2
1.821323470E-1,1.065264456E-3,-1.810949668E-2,2.024002373E-2
1.841310190E-1,1.597896684E-3,-1.757686399E-2,1.917476021E-2
1.861303940E-1,1.597896684E-3,-2.024002373E-2,2.237055451E-2
1.881293000E-1,0.000000000E0,-1.917476021E-2,2.290318534E-2
1.901287530E-1,-1.597896684E-3,-1.757686399E-2,2.450108156E-2
1.921276600E-1,-1.597896684E-3,-1.544633508E-2,2.503371425E-2
1.941273860E-1,-3.728425596E-3,-1.331580617E-2,2.663161233E-2
1.961266830E-1,-2.130528912E-3,-1.065264456E-2,2.609897964E-2
1.981260190E-1,0.000000000E0,-7.456851192E-3,2.769687586E-2
2.001260580E-1,5.326322280E-4,-7.456851192E-3,2.769687586E-2
2.021260190E-1,2.663161140E-3,-2.663161140E-3,3.036003746E-2
2.041260190E-1,1.065264456E-3,3.728425596E-3,2.982740477E-2
2.061254330E-1,2.130528912E-3,3.195793368E-3,3.302319720E-2
2.081257850E-1,1.065264456E-3,6.924218964E-3,3.302319720E-2
2.101253940E-1,-2.663161140E-3,1.065264456E-2,3.249056637E-2
2.121246130E-1,5.326322280E-4,1.491370238E-2,3.036003746E-2
2.141243390E-1,0.000000000E0,1.438106969E-2,2.876213938E-2
2.161247300E-1,0.000000000E0,1.171790902E-2,2.663161233E-2
2.181260190E-1,3.728425596E-3,9.054748341E-3,2.663161233E-2
2.201256670E-1,2.663161140E-3,1.118527725E-2,2.503371425E-2
2.221259410E-1,4.261057824E-3,7.456851192E-3,2.609897964E-2
2.241258630E-1,1.597896684E-3,6.924218964E-3,2.556634694E-2
2.261248860E-1,2.663161140E-3,4.261057824E-3,2.237055451E-2
2.281245740E-1,-5.326322280E-4,3.728425596E-3,2.130528912E-2
2.301233240E-1,-5.326322280E-4,-1.065264456E-3,2.024002373E-2
2.321220350E-1,-1.065264456E-3,-3.195793368E-3,1.970739290E-2
2.341204330E-1,-5.326322280E-4,-3.728425596E-3,1.917476021E-2
2.361194960E-1,1.065264456E-3,-6.924218964E-3,1.757686399E-2
2.381194960E-1,2.130528912E-3,-7.989482954E-3,2.024002373E-2
2.401194170E-1,3.728425596E-3,-9.587380104E-3,2.183792181E-2
2.421189880E-1,5.326322280E-4,-8.522115648E-3,2.290318534E-2
2.441178940E-1,2.130528912E-3,-1.012001187E-2,2.077265643E-2
2.461166050E-1,5.326322280E-4,-9.054748341E-3,2.077265643E-2
2.481155110E-1,-5.326322280E-4,-5.326322280E-3,2.077265643E-2
2.501147690E-1,-1.597896684E-3,-2.663161140E-3,2.130528912E-2
2.521144170E-1,-5.326322280E-4,-2.130528912E-3,2.077265643E-2
2.541143390E-1,-5.326322280E-4,-2.663161140E-3,2.183792181E-2
2.561134020E-1,1.065264456E-3,1.065264456E-3,2.024002373E-2
2.581121910E-1,1.597896684E-3,3.728425596E-3,2.183792181E-2
2.601111750E-1,2.663161140E-3,4.793690052E-3,2.183792181E-2
2.621102770E-1,2.663161140E-3,3.728425596E-3,2.024002373E-2
2.641097300E-1,1.597896684E-3,7.989482954E-3,2.183792181E-2
2.661094570E-1,2.663161140E-3,6.391586736E-3,2.077265643E-2
2.681091440E-1,1.065264456E-3,8.522115648E-3,1.917476021E-2
2.701080110E-1,1.597896684E-3,9.587380104E-3,1.917476021E-2
2.721078550E-1,0.000000000E0,5.326322280E-3,1.491370238E-2
2.741079720E-1,2.130528912E-3,4.261057824E-3,1.438106969E-2
2.761075820E-1,3.195793368E-3,1.597896684E-3,1.331580617E-2
2.781075420E-1,1.597896684E-3,-1.065264456E-3,1.278317347E-2
2.801073080E-1,3.728425596E-3,-5.326322280E-4,1.118527725E-2
2.821073080E-1,4.793690052E-3,-3.195793368E-3,1.118527725E-2
2.841069570E-1,3.728425596E-3,-3.195793368E-3,9.587380104E-3
2.861060580E-1,0.000000000E0,-4.793690052E-3,7.989482954E-3
2.881057070E-1,-5.326322280E-4,-6.924218964E-3,9.587380104E-3
2.901055890E-1,-1.065264456E-3,-6.391586736E-3,7.989482954E-3
2.921045350E-1,2.130528912E-3,-9.587380104E-3,5.326322280E-3
2.941031670E-1,2.130528912E-3,-7.456851192E-3,5.858954508E-3
2.961024250E-1,2.130528912E-3,-9.587380104E-3,4.261057824E-3
2.981024250E-1,2.663161140E-3,-9.054748341E-3,5.326322280E-3
3.001020740E-1,2.130528912E-3,-7.456851192E-3,5.326322280E-3
3.021021910E-1,2.130528912E-3,-5.326322280E-3,3.728425596E-3
3.041024250E-1,-5.326322280E-4,-3.728425596E-3,5.326322280E-3
3.061020740E-1,0.000000000E0,-2.130528912E-3,4.261057824E-3
3.081022300E-1,0.000000000E0,1.065264456E-3,2.130528912E-3
3.101032850E-1,1.597896684E-3,5.326322280E-4,-1.065264456E-3
3.121040270E-1,2.663161140E-3,2.130528912E-3,-1.065264456E-3
3.141045350E-1,3.728425596E-3,1.597896684E-3,-3.728425596E-3
3.161044960E-1,5.326322280E-3,4.261057824E-3,-3.728425596E-3
3.181042220E-1,2.663161140E-3,4.261057824E-3,-5.858954508E-3
3.201037530E-1,4.261057824E-3,2.663161140E-3,-7.989482954E-3
3.221034020E-1,3.728425596E-3,4.261057824E-3,-8.522115648E-3
3.241023470E-1,3.728425596E-3,4.261057824E-3,-1.012001187E-2
3.261019570E-1,2.663161140E-3,3.195793368E-3,-1.171790902E-2
3.281020350E-1,1.065264456E-3,0.000000000E0,-1.278317347E-2
3.301022300E-1,1.597896684E-3,-1.597896684E-3,-1.384843793E-2
3.321023860E-1,3.728425596E-3,-2.663161140E-3,-1.331580617E-2
3.341026990E-1,5.326322280E-4,-5.326322280E-3,-1.438106969E-2
3.361030890E-1,2.663161140E-3,-5.858954508E-3,-1.544633508E-2
3.381026210E-1,2.130528912E-3,-4.261057824E-3,-1.491370238E-2
3.401028550E-1,2.130528912E-3,-4.261057824E-3,-1.651159860E-2
3.421040660E-1,2.663161140E-3,-5.858954508E-3,-1.384843793E-2
3.441048860E-1,2.663161140E-3,-3.195793368E-3,-1.491370238E-2
3.461046910E-1,2.130528912E-3,-5.326322280E-3,-1.544633508E-2
3.481045740E-1,2.130528912E-3,-3.728425596E-3,-1.544633508E-2
3.501054330E-1,1.065264456E-3,-1.065264456E-3,-1.597896591E-2
3.521063710E-1,3.728425596E-3,0.000000000E0,-1.757686399E-2
3.541073470E-1,4.261057824E-3,1.597896684E-3,-1.757686399E-2
3.561084020E-1,3.195793368E-3,1.065264456E-3,-1.917476021E-2
3.581089100E-1,3.195793368E-3,5.326322280E-4,-1.864212751E-2
3.601088710E-1,2.130528912E-3,5.858954508E-3,-2.077265643E-2
3.621085190E-1,2.130528912E-3,4.261057824E-3,-2.130528912E-2
3.641082460E-1,2.130528912E-3,4.261057824E-3,-2.450108156E-2
3.661073080E-1,4.793690052E-3,3.195793368E-3,-2.556634694E-2
3.681073080E-1,5.326322280E-3,0.000000000E0,-2.769687586E-2
3.701073860E-1,3.728425596E-3,0.000000000E0,-2.982740477E-2
3.721069170E-1,3.195793368E-3,5.326322280E-4,-3.089267015E-2
3.741063710E-1,2.130528912E-3,-5.326322280E-4,-2.876213938E-2
3.761061360E-1,4.261057824E-3,-1.065264456E-3,-3.142530099E-2
3.781060190E-1,2.130528912E-3,-3.195793368E-3,-3.142530099E-2
3.801058240E-1,2.663161140E-3,-4.261057824E-3,-3.089267015E-2
3.821065270E-1,1.065264456E-3,-4.261057824E-3,-3.249056637E-2
3.841071130E-1,4.261057824E-3,-3.195793368E-3,-3.036003746E-2
3.861078940E-1,4.261057824E-3,-6.391586736E-3,-3.195793182E-2
3.881080500E-1,3.195793368E-3,-5.326322280E-3,-3.089267015E-2
3.901077770E-1,4.261057824E-3,-4.793690052E-3,-2.982740477E-2
3.921079720E-1,4.793690052E-3,-4.261057824E-3,-2.982740477E-2
3.941075030E-1,4.261057824E-3,-4.793690052E-3,-2.822950855E-2
3.961072690E-1,2.663161140E-3,-2.130528912E-3,-2.663161233E-2
3.981070740E-1,2.130528912E-3,-5.326322280E-4,-2.450108156E-2
4.001070740E-1,1.597896684E-3,5.326322280E-4,-2.450108156E-2
4.021068390E-1,3.728425596E-3,0.000000000E0,-2.343581803E-2
4.041068390E-1,1.065264456E-3,1.597896684E-3,-2.290318534E-2
4.061067220E-1,2.663161140E-3,0.000000000E0,-2.183792181E-2
4.081061360E-1,3.728425596E-3,2.130528912E-3,-2.450108156E-2
4.101055890E-1,5.858954508E-3,5.326322280E-4,-2.077265643E-2
4.121052770E-1,3.195793368E-3,5.326322280E-4,-2.077265643E-2
4.141046520E-1,4.261057824E-3,2.130528912E-3,-2.077265643E-2
4.161041440E-1,1.597896684E-3,5.326322280E-4,-2.024002373E-2
4.181030110E-1,1.065264456E-3,0.000000000E0,-1.864212751E-2
4.201027380E-1,1.597896684E-3,-1.065264456E-3,-1.757686399E-2
4.221025820E-1,1.065264456E-3,5.326322280E-4,-1.704423130E-2
4.241025030E-1,2.663161140E-3,-2.663161140E-3,-1.651159860E-2
4.261023470E-1,4.261057824E-3,-5.858954508E-3,-1.597896591E-2
4.281025820E-1,1.597896684E-3,-6.391586736E-3,-1.491370238E-2
4.301023860E-1,2.663161140E-3,-7.456851192E-3,-1.438106969E-2
4.321024640E-1,0.000000000E0,-6.924218964E-3,-1.012001187E-2
4.341026600E-1,2.130528912E-3,-1.012001187E-2,-9.587380104E-3
4.361028550E-1,1.597896684E-3,-8.522115648E-3,-1.118527725E-2
4.381025030E-1,-1.597896684E-3,-1.065264456E-2,-7.989482954E-3
4.401023860E-1,2.663161140E-3,-9.587380104E-3,-6.391586736E-3
4.421018390E-1,3.728425596E-3,-1.225054078E-2,-5.326322280E-3
4.441014100E-1,0.000000000E0,-8.522115648E-3,-4.793690052E-3
4.461010190E-1,4.261057824E-3,-9.054748341E-3,-4.793690052E-3
4.481001210E-1,2.663161140E-3,-8.522115648E-3,-2.663161140E-3
4.501000030E-1,1.597896684E-3,-8.522115648E-3,-2.663161140E-3
4.521000820E-1,2.663161140E-3,-6.391586736E-3,-2.130528912E-3
4.540989490E-1,0.000000000E0,-5.326322280E-3,-1.065264456E-3
4.560989100E-1,5.326322280E-4,-6.924218964E-3,1.065264456E-3
4.580975030E-1,-1.065264456E-3,-3.728425596E-3,0.000000000E0
4.600962140E-1,0.000000000E0,-3.728425596E-3,3.728425596E-3
4.620946520E-1,5.326322280E-4,-1.065264456E-3,3.195793368E-3
4.640930500E-1,4.261057824E-3,-3.195793368E-3,3.195793368E-3
4.660913320E-1,4.793690052E-3,-2.130528912E-3,4.793690052E-3
4.680898080E-1,2.130528912E-3,-1.597896684E-3,9.054748341E-3
4.700893000E-1,1.597896684E-3,-3.195793368E-3,7.989482954E-3
4.720891440E-1,5.326322280E-4,-2.663161140E-3,1.065264456E-2
4.740886360E-1,-1.065264456E-3,-2.130528912E-3,1.278317347E-2
4.760884410E-1,5.326322280E-4,-5.326322280E-4,1.491370238E-2
4.780886750E-1,-1.065264456E-3,-1.597896684E-3,1.757686399E-2
4.800878160E-1,5.326322280E-4,-5.326322280E-4,2.024002373E-2
4.820880500E-1,4.261057824E-3,-2.130528912E-3,2.130528912E-2
4.840876600E-1,2.130528912E-3,5.326322280E-4,2.450108156E-2
4.860878160E-1,1.065264456E-3,-5.326322280E-4,2.609897964E-2
4.880873470E-1,5.326322280E-4,2.130528912E-3,3.036003746E-2
4.900857850E-1,2.130528912E-3,3.728425596E-3,3.408846259E-2
4.920835580E-1,-1.065264456E-3,6.391586736E-3,3.568635881E-2
4.940826990E-1,5.326322280E-4,7.989482954E-3,3.888215125E-2
4.960827770E-1,1.065264456E-3,1.012001187E-2,4.261057824E-2
4.980823470E-1,2.130528912E-3,7.989482954E-3,4.633900523E-2
5.000819170E-1,1.597896684E-3,1.012001187E-2,4.793690145E-2
5.020807070E-1,1.597896684E-3,9.587380104E-3,5.219795927E-2
5.040803160E-1,3.728425596E-3,1.331580617E-2,5.539375171E-2
5.060794170E-1,5.326322280E-4,1.278317347E-2,5.752427876E-2
5.080789100E-1,1.065264456E-3,1.171790902E-2,6.231797114E-2
5.100786750E-1,-1.065264456E-3,1.278317347E-2,6.338323653E-2
5.120784410E-1,-5.326322280E-4,9.587380104E-3,6.764429063E-2
5.140779330E-1,0.000000000E0,1.012001187E-2,7.084008306E-2
5.160771130E-1,5.326322280E-4,5.858954508E-3,7.456851006E-2
5.180765270E-1,1.065264456E-3,3.728425596E-3,7.563377917E-2
5.200762530E-1,1.065264456E-3,2.663161140E-3,7.936219871E-2
5.220753940E-1,-5.326322280E-4,0.000000000E0,8.149272949E-2
5.240749640E-1,-3.195793368E-3,0.000000000E0,8.042746782E-2
5.260744960E-1,-1.597896684E-3,-1.065264456E-3,8.575379103E-2
5.280738320E-1,-2.663161140E-3,-1.597896684E-3,8.628641814E-2
5.300736750E-1,-1.597896684E-3,-3.195793368E-3,8.681905270E-2
5.320743390E-1,-1.597896684E-3,-1.597896684E-3,8.681905270E-2
5.340754720E-1,-1.597896684E-3,-3.195793368E-3,8.522115648E-2
5.360755890E-1,-1.065264456E-3,-1.597896684E-3,8.522115648E-2
5.380760190E-1,-1.065264456E-3,0.000000000E0,8.628641814E-2
5.400756670E-1,5.326322280E-4,-1.065264456E-3,8.575379103E-2
5.420749250E-1,-2.663161140E-3,2.663161140E-3,8.362326026E-2
5.440737920E-1,-2.663161140E-3,4.793690052E-3,8.096009493E-2
5.460735580E-1,-1.065264456E-3,5.326322280E-3,8.149272949E-2
5.480733630E-1,0.000000000E0,8.522115648E-3,7.776430249E-2
5.500730890E-1,0.000000000E0,7.456851192E-3,7.563377917E-2
5.520718780E-1,0.000000000E0,9.054748341E-3,7.190535218E-2
5.540701990E-1,1.065264456E-3,7.456851192E-3,7.243798673E-2
5.560684020E-1,2.663161140E-3,9.587380104E-3,6.764429063E-2
5.580669170E-1,1.597896684E-3,1.012001187E-2,6.657902896E-2
5.600655890E-1,5.326322280E-4,9.587380104E-3,6.231797114E-2
5.620644170E-1,-5.326322280E-4,9.587380104E-3,6.072007492E-2
5.640632850E-1,-1.065264456E-3,1.012001187E-2,5.912217870E-2
5.660625820E-1,-5.326322280E-4,6.391586736E-3,5.539375171E-2
5.680616440E-1,1.597896684E-3,5.858954508E-3,4.953479767E-2
5.700598080E-1,-5.326322280E-4,6.924218964E-3,5.113269389E-2
5.720586750E-1,1.065264456E-3,4.793690052E-3,4.793690145E-2
5.740576990E-1,2.663161140E-3,3.195793368E-3,4.367584363E-2
5.760561750E-1,5.326322280E-4,-1.065264456E-3,4.101268202E-2
5.780549640E-1,-1.065264456E-3,5.326322280E-4,4.101268202E-2
5.800540660E-1,1.597896684E-3,-1.597896684E-3,3.781688958E-2
5.820532070E-1,1.065264456E-3,2.130528912E-3,3.302319720E-2
5.840522300E-1,1.065264456E-3,1.597896684E-3,2.769687586E-2
5.860504720E-1,1.597896684E-3,0.000000000E0,2.556634694E-2
5.880492610E-1,2.130528912E-3,-1.597896684E-3,2.024002373E-2
5.900480890E-1,1.065264456E-3,-2.663161140E-3,1.864212751E-2
5.920475420E-1,2.663161140E-3,-2.130528912E-3,1.171790902E-2
5.940472300E-1,3.728425596E-3,-3.728425596E-3,9.054748341E-3
5.960473080E-1,1.065264456E-3,-1.597896684E-3,2.663161140E-3
5.980472300E-1,1.597896684E-3,-1.597896684E-3,-2.130528912E-3
6.000471520E-1,2.130528912E-3,-1.065264456E-3,-5.858954508E-3
6.020463710E-1,2.130528912E-3,-1.597896684E-3,-1.225054078E-2
6.040452770E-1,1.597896684E-3,-2.130528912E-3,-1.704423130E-2
6.060448470E-1,3.195793368E-3,5.326322280E-4,-2.130528912E-2
6.080436750E-1,2.130528912E-3,-1.597896684E-3,-2.663161233E-2
6.100421130E-1,3.195793368E-3,-2.663161140E-3,-2.663161233E-2
6.120412530E-1,3.195793368E-3,-1.597896684E-3,-3.408846259E-2
6.140407460E-1,0.000000000E0,-4.793690052E-3,-3.675162420E-2
6.160403160E-1,2.663161140E-3,-3.195793368E-3,-3.941478580E-2
6.180397300E-1,2.130528912E-3,-1.065264456E-3,-4.048004746E-2
6.200387530E-1,3.195793368E-3,-2.663161140E-3,-4.527373984E-2
6.220378160E-1,4.793690052E-3,-2.130528912E-3,-4.793690145E-2
6.240366050E-1,4.793690052E-3,-2.663161140E-3,-5.273059011E-2
6.260354720E-1,3.728425596E-3,-1.065264456E-3,-5.539375171E-2
6.280342220E-1,7.456851192E-3,-5.326322280E-4,-5.805691332E-2
6.300329330E-1,4.793690052E-3,-5.326322280E-3,-6.125270575E-2
6.320320740E-1,5.326322280E-3,-5.326322280E-3,-6.391586363E-2
6.340315270E-1,5.326322280E-3,-4.261057824E-3,-6.764429063E-2
6.360309800E-1,4.261057824E-3,-3.195793368E-3,-7.190535218E-2
6.380302770E-1,4.793690052E-3,-4.261057824E-3,-7.510114461E-2
6.400304330E-1,4.261057824E-3,-4.793690052E-3,-7.776430249E-2
6.420298080E-1,3.195793368E-3,-4.261057824E-3,-8.149272949E-2
6.440288320E-1,4.793690052E-3,-5.858954508E-3,-8.255799860E-2
6.460272690E-1,5.326322280E-3,-5.858954508E-3,-8.522115648E-2
6.480268000E-1,5.326322280E-3,-9.587380104E-3,-8.628641814E-2
6.500260580E-1,5.326322280E-3,-8.522115648E-3,-8.681905270E-2
6.520244570E-1,5.326322280E-3,-7.456851192E-3,-8.948221803E-2
6.540228160E-1,5.858954508E-3,-7.989482954E-3,-8.841694891E-2
6.560215660E-1,5.326322280E-3,-9.587380104E-3,-8.948221803E-2
6.580207460E-1,3.728425596E-3,-9.587380104E-3,-9.001484513E-2
6.600200030E-1,4.793690052E-3,-9.054748341E-3,-9.001484513E-2
6.620190660E-1,5.326322280E-3,-8.522115648E-3,-8.735168725E-2
6.640181280E-1,5.326322280E-3,-9.587380104E-3,-8.575379103E-2
6.660175030E-1,5.326322280E-3,-1.065264456E-2,-8.681905270E-2
6.680168390E-1,6.391586736E-3,-1.065264456E-2,-8.681905270E-2
6.700162140E-1,4.261057824E-3,-1.118527725E-2,-8.362326026E-2
6.720148860E-1,4.261057824E-3,-6.924218964E-3,-8.415589482E-2
6.740141050E-1,4.793690052E-3,-3.195793368E-3,-8.096009493E-2
6.760137140E-1,6.391586736E-3,-5.326322280E-3,-7.882957160E-2
6.780129720E-1,5.858954508E-3,-2.130528912E-3,-7.936219871E-2
6.800126210E-1,5.858954508E-3,0.000000000E0,-7.829693705E-2
6.820126600E-1,7.989482954E-3,0.000000000E0,-7.456851006E-2
6.840126600E-1,6.924218964E-3,-1.065264456E-3,-7.350324839E-2
6.860119960E-1,7.456851192E-3,-5.326322280E-4,-7.297061384E-2
6.880110580E-1,6.924218964E-3,0.000000000E0,-7.137271762E-2
6.900102770E-1,5.326322280E-3,5.326322280E-4,-6.977482140E-2
6.920102380E-1,4.793690052E-3,0.000000000E0,-6.817692518E-2
6.940098860E-1,2.663161140E-3,1.065264456E-3,-6.498113275E-2
6.960093000E-1,5.858954508E-3,1.065264456E-3,-6.231797114E-2
6.980084410E-1,4.793690052E-3,5.326322280E-4,-6.285060197E-2
7.000063320E-1,4.261057824E-3,0.000000000E0,-5.912217870E-2
7.020035580E-1,6.391586736E-3,0.000000000E0,-5.539375171E-2
7.040022690E-1,3.195793368E-3,-3.195793368E-3,-5.273059011E-2
7.060015660E-1,5.858954508E-3,-2.130528912E-3,-4.633900523E-2
7.080010580E-1,2.663161140E-3,-4.793690052E-3,-4.420847446E-2
7.100004720E-1,4.261057824E-3,-5.858954508E-3,-4.048004746E-2
7.119989490E-1,-5.326322280E-4,-2.663161140E-3,-3.781688958E-2
7.139975030E-1,3.195793368E-3,-3.728425596E-3,-3.462109342E-2
7.159978940E-1,4.793690052E-3,-5.326322280E-3,-2.876213938E-2
7.179978550E-1,2.663161140E-3,-5.858954508E-3,-2.822950855E-2
7.199973860E-1,4.261057824E-3,-2.130528912E-3,-2.396845073E-2
7.219968000E-1,2.663161140E-3,-4.261057824E-3,-1.917476021E-2
7.239968780E-1,2.130528912E-3,-5.326322280E-3,-1.704423130E-2
7.259970740E-1,2.130528912E-3,-3.195793368E-3,-1.438106969E-2
7.279969570E-1,3.195793368E-3,-3.195793368E-3,-1.331580617E-2
7.299967220E-1,2.663161140E-3,-3.195793368E-3,-1.065264456E-2
7.319964490E-1,2.130528912E-3,-2.130528912E-3,-7.989482954E-3
7.339967610E-1,2.663161140E-3,-5.326322280E-4,-5.858954508E-3
7.359968780E-1,5.326322280E-3,-5.326322280E-4,-5.858954508E-3
7.379961750E-1,3.728425596E-3,-3.728425596E-3,-1.065264456E-3
7.399950030E-1,4.793690052E-3,0.000000000E0,1.065264456E-3
7.419933240E-1,2.130528912E-3,-1.597896684E-3,2.663161140E-3
7.439921130E-1,2.663161140E-3,-1.065264456E-3,3.195793368E-3
7.459913710E-1,4.261057824E-3,1.597896684E-3,6.391586736E-3
7.479913320E-1,2.130528912E-3,5.326322280E-4,1.118527725E-2
7.499898860E-1,1.597896684E-3,5.326322280E-4,1.012001187E-2
7.519889880E-1,1.597896684E-3,1.597896684E-3,1.544633508E-2
7.539891050E-1,2.663161140E-3,5.326322280E-4,1.757686399E-2
7.559896130E-1,1.597896684E-3,-1.597896684E-3,2.024002373E-2
7.579895350E-1,2.663161140E-3,-2.130528912E-3,2.290318534E-2
7.599890660E-1,4.261057824E-3,0.000000000E0,2.609897964E-2
7.619892610E-1,2.130528912E-3,5.326322280E-4,3.036003746E-2
7.639892220E-1,0.000000000E0,1.065264456E-3,3.089267015E-2
7.659893780E-1,5.326322280E-4,3.195793368E-3,3.302319720E-2
7.679890660E-1,1.065264456E-3,3.195793368E-3,3.728425503E-2
7.699884800E-1,-2.130528912E-3,3.195793368E-3,3.888215125E-2
7.719875420E-1,2.130528912E-3,4.261057824E-3,4.154531285E-2
7.739859800E-1,3.195793368E-3,4.261057824E-3,4.420847446E-2
7.759850030E-1,4.793690052E-3,3.728425596E-3,4.633900523E-2
7.779842220E-1,3.728425596E-3,4.261057824E-3,4.793690145E-2
7.799837920E-1,3.728425596E-3,3.728425596E-3,4.953479767E-2
7.819832070E-1,2.130528912E-3,3.728425596E-3,5.113269389E-2
7.839826990E-1,-5.326322280E-4,3.728425596E-3,5.219795927E-2
7.859825820E-1,-1.065264456E-3,1.065264456E-3,5.379585549E-2
7.879823860E-1,1.597896684E-3,2.663161140E-3,5.326322466E-2
7.899816440E-1,0.000000000E0,4.261057824E-3,5.645901710E-2
7.919806670E-1,5.326322280E-4,-1.597896684E-3,5.752427876E-2
7.939801990E-1,2.663161140E-3,-2.663161140E-3,5.805691332E-2
7.959794960E-1,5.326322280E-4,-3.195793368E-3,5.912217870E-2
7.979785580E-1,1.597896684E-3,-4.793690052E-3,6.125270575E-2
7.999782460E-1,2.130528912E-3,-4.261057824E-3,6.125270575E-2
8.019775420E-1,-5.326322280E-4,-4.793690052E-3,6.125270575E-2
8.039779330E-1,-2.130528912E-3,-4.793690052E-3,6.125270575E-2
8.059784020E-1,-1.065264456E-3,-4.261057824E-3,6.125270575E-2
8.079788710E-1,1.597896684E-3,-4.261057824E-3,6.125270575E-2
8.099802770E-1,5.326322280E-4,-2.663161140E-3,6.391586363E-2
8.119807070E-1,2.130528912E-3,-3.195793368E-3,6.391586363E-2
8.139809410E-1,2.130528912E-3,-4.261057824E-3,6.072007492E-2
8.159817610E-1,5.326322280E-4,-2.663161140E-3,5.965480953E-2
8.179820740E-1,0.000000000E0,-5.326322280E-4,5.699164793E-2
8.199819170E-1,5.326322280E-4,0.000000000E0,5.539375171E-2
8.219822690E-1,0.000000000E0,2.130528912E-3,5.486112088E-2
8.239820740E-1,0.000000000E0,3.728425596E-3,5.219795927E-2
8.259821910E-1,-5.326322280E-4,3.728425596E-3,5.060006306E-2
8.279818780E-1,1.597896684E-3,4.261057824E-3,5.113269389E-2
8.299818000E-1,3.728425596E-3,2.663161140E-3,4.740426689E-2
8.319818390E-1,2.130528912E-3,1.597896684E-3,4.580637068E-2
8.339817220E-1,2.663161140E-3,1.065264456E-3,4.261057824E-2
8.359814490E-1,4.261057824E-3,2.663161140E-3,3.994741663E-2
8.379807070E-1,2.130528912E-3,5.326322280E-4,3.728425503E-2
8.399799640E-1,5.326322280E-4,-5.326322280E-4,3.462109342E-2
8.419793390E-1,0.000000000E0,5.326322280E-4,3.408846259E-2
8.439790270E-1,-1.597896684E-3,-2.663161140E-3,3.036003746E-2
8.459787140E-1,1.597896684E-3,-4.793690052E-3,3.302319720E-2
8.479793390E-1,1.065264456E-3,-5.858954508E-3,3.036003746E-2
8.499794170E-1,3.728425596E-3,-7.456851192E-3,2.929477207E-2
8.519793390E-1,3.195793368E-3,-9.587380104E-3,2.663161233E-2
8.539783630E-1,2.663161140E-3,-9.587380104E-3,2.503371425E-2
8.559771520E-1,1.065264456E-3,-7.989482954E-3,2.343581803E-2
8.579762530E-1,-5.326322280E-4,-7.456851192E-3,1.970739290E-2
8.599756670E-1,-5.326322280E-4,-4.793690052E-3,1.864212751E-2
8.619736360E-1,-5.326322280E-4,-4.261057824E-3,1.704423130E-2
8.639720740E-1,2.663161140E-3,-2.130528912E-3,1.810949668E-2
8.659710970E-1,2.663161140E-3,-2.663161140E-3,1.651159860E-2
8.679702770E-1,3.195793368E-3,-3.728425596E-3,1.491370238E-2
8.699691830E-1,3.728425596E-3,-2.130528912E-3,1.438106969E-2
8.719682850E-1,3.195793368E-3,-5.326322280E-4,1.278317347E-2
8.739672300E-1,-5.326322280E-4,5.326322280E-4,1.065264456E-2
8.759669170E-1,5.326322280E-4,1.597896684E-3,9.054748341E-3
8.779664880E-1,5.326322280E-4,3.195793368E-3,6.924218964E-3
8.799660970E-1,1.597896684E-3,4.261057824E-3,5.858954508E-3
8.819663710E-1,2.130528912E-3,2.130528912E-3,7.989482954E-3
8.839660190E-1,1.597896684E-3,3.728425596E-3,6.924218964E-3
8.859651210E-1,4.793690052E-3,-1.065264456E-3,7.456851192E-3
8.879645350E-1,7.456851192E-3,-2.130528912E-3,6.391586736E-3
8.899642610E-1,4.261057824E-3,-2.663161140E-3,5.858954508E-3
8.919638710E-1,3.728425596E-3,-3.195793368E-3,2.130528912E-3
8.939626990E-1,3.195793368E-3,-4.261057824E-3,3.728425596E-3
8.959616830E-1,5.326322280E-4,-3.728425596E-3,4.793690052E-3
8.979601990E-1,-5.326322280E-4,-4.261057824E-3,3.728425596E-3
8.999592610E-1,2.130528912E-3,-4.793690052E-3,4.793690052E-3
9.019585190E-1,2.663161140E-3,-4.261057824E-3,5.858954508E-3
9.039574250E-1,3.728425596E-3,-4.261057824E-3,3.728425596E-3
9.059565270E-1,3.195793368E-3,-4.261057824E-3,3.728425596E-3
9.079557070E-1,4.261057824E-3,-5.326322280E-3,2.130528912E-3
9.099547690E-1,2.130528912E-3,-5.326322280E-3,5.326322280E-4
9.119535970E-1,1.597896684E-3,-1.597896684E-3,0.000000000E0
9.139523080E-1,-1.065264456E-3,1.065264456E-3,0.000000000E0
9.159513320E-1,1.597896684E-3,5.326322280E-4,-1.065264456E-3
9.179509800E-1,1.065264456E-3,2.663161140E-3,-1.065264456E-3
9.199499250E-1,3.728425596E-3,3.728425596E-3,-3.195793368E-3
9.219493390E-1,6.391586736E-3,1.065264456E-3,-5.326322280E-4
9.239493780E-1,5.326322280E-3,1.597896684E-3,-1.597896684E-3
9.259493390E-1,5.326322280E-3,2.130528912E-3,-1.065264456E-3
9.279486360E-1,4.261057824E-3,1.065264456E-3,-1.597896684E-3
9.299474250E-1,3.195793368E-3,2.130528912E-3,-3.728425596E-3
9.319464490E-1,5.326322280E-4,4.261057824E-3,-3.728425596E-3
9.339466050E-1,0.000000000E0,1.065264456E-3,-4.793690052E-3
9.359467610E-1,1.065264456E-3,1.597896684E-3,-3.195793368E-3
9.379469170E-1,2.130528912E-3,-1.597896684E-3,-4.793690052E-3
9.399467610E-1,3.195793368E-3,-2.663161140E-3,-4.793690052E-3
9.419467610E-1,3.195793368E-3,-6.924218964E-3,-2.130528912E-3
9.439473080E-1,3.728425596E-3,-5.858954508E-3,-4.261057824E-3
9.459483240E-1,2.663161140E-3,-7.989482954E-3,-4.261057824E-3
9.479475420E-1,2.130528912E-3,-6.924218964E-3,-5.326322280E-3
9.499473470E-1,-5.326322280E-4,-4.793690052E-3,-6.924218964E-3
9.519472300E-1,1.065264456E-3,-4.793690052E-3,-9.054748341E-3
9.539476210E-1,-5.326322280E-4,-5.858954508E-3,-1.118527725E-2
9.559480890E-1,3.195793368E-3,-4.261057824E-3,-1.118527725E-2
9.579481670E-1,3.195793368E-3,-4.261057824E-3,-1.065264456E-2
9.599483240E-1,3.728425596E-3,-3.195793368E-3,-1.225054078E-2
9.619488320E-1,5.858954508E-3,-2.663161140E-3,-1.278317347E-2
9.639489100E-1,3.728425596E-3,-3.195793368E-3,-1.544633508E-2
9.659489880E-1,1.597896684E-3,1.597896684E-3,-1.917476021E-2
9.679494960E-1,2.663161140E-3,1.597896684E-3,-1.917476021E-2
9.699501210E-1,-1.065264456E-3,3.728425596E-3,-2.077265643E-2
9.719501990E-1,1.065264456E-3,3.728425596E-3,-2.396845073E-2
9.739498080E-1,2.663161140E-3,4.793690052E-3,-2.343581803E-2
9.759494960E-1,3.728425596E-3,2.663161140E-3,-2.396845073E-2
9.779496130E-1,4.793690052E-3,1.597896684E-3,-2.609897964E-2
9.799477380E-1,7.989482954E-3,-5.326322280E-4,-2.503371425E-2
9.819455500E-1,4.261057824E-3,5.326322280E-4,-2.556634694E-2
9.839449640E-1,4.261057824E-3,-2.130528912E-3,-2.556634694E-2
9.859440270E-1,2.130528912E-3,0.000000000E0,-2.822950855E-2
9.879439100E-1,5.326322280E-4,-5.326322280E-4,-2.876213938E-2
9.899437530E-1,2.130528912E-3,-5.326322280E-4,-2.982740477E-2
9.919434020E-1,2.130528912E-3,-3.195793368E-3,-2.929477207E-2
9.939440270E-1,2.663161140E-3,-3.728425596E-3,-3.142530099E-2
9.959426990E-1,5.326322280E-3,-3.728425596E-3,-2.929477207E-2
9.979409020E-1,3.728425596E-3,-5.326322280E-3,-3.249056637E-2
9.999404720E-1,4.793690052E-3,-4.261057824E-3,-3.302319720E-2
1.001940238E0,4.793690052E-3,-4.261057824E-3,-3.142530099E-2
1.003940511E0,2.130528912E-3,-5.326322280E-4,-3.621899337E-2
1.005940941E0,1.065264456E-3,2.130528912E-3,-3.834952042E-2
1.007941605E0,2.663161140E-3,0.000000000E0,-3.621899337E-2
1.009942738E0,0.000000000E0,1.065264456E-3,-3.834952042E-2
1.011943480E0,2.663161140E-3,-1.065264456E-3,-3.675162420E-2
1.013943792E0,6.391586736E-3,-1.597896684E-3,-3.675162420E-2
1.015944027E0,6.924218964E-3,-1.597896684E-3,-3.941478580E-2
1.017944261E0,5.858954508E-3,-3.195793368E-3,-3.568635881E-2
1.019943949E0,2.663161140E-3,-4.793690052E-3,-3.728425503E-2
1.021943167E0,1.597896684E-3,-3.728425596E-3,-3.781688958E-2
1.023942191E0,0.000000000E0,-5.858954508E-3,-3.462109342E-2
1.025941527E0,1.065264456E-3,-6.391586736E-3,-3.462109342E-2
1.027941878E0,1.597896684E-3,-6.391586736E-3,-3.302319720E-2
1.029942113E0,1.597896684E-3,-8.522115648E-3,-3.302319720E-2
1.031942152E0,2.663161140E-3,-6.924218964E-3,-3.142530099E-2
1.033942425E0,3.728425596E-3,-1.012001187E-2,-2.982740477E-2
1.035941996E0,3.195793368E-3,-9.054748341E-3,-2.716424316E-2
1.037940707E0,4.261057824E-3,-6.391586736E-3,-2.609897964E-2
1.039939964E0,2.130528912E-3,-4.793690052E-3,-2.290318534E-2
1.041939339E0,3.195793368E-3,-3.195793368E-3,-2.130528912E-2
1.043939339E0,1.065264456E-3,-1.597896684E-3,-2.077265643E-2
1.045939105E0,1.065264456E-3,2.663161140E-3,-1.810949668E-2
1.047939105E0,2.130528912E-3,3.195793368E-3,-1.917476021E-2
1.049938675E0,4.261057824E-3,6.391586736E-3,-1.438106969E-2
1.051939222E0,5.326322280E-3,3.728425596E-3,-1.225054078E-2
1.053939417E0,2.130528912E-3,5.326322280E-4,-1.331580617E-2
1.055939105E0,5.326322280E-3,1.065264456E-3,-9.054748341E-3
1.057938558E0,3.728425596E-3,-3.195793368E-3,-9.587380104E-3
1.059939066E0,5.326322280E-4,-1.065264456E-3,-6.391586736E-3
1.061939652E0,-3.195793368E-3,-4.793690052E-3,-5.858954508E-3
1.063939925E0,1.597896684E-3,-5.858954508E-3,-3.195793368E-3
1.065940042E0,-3.195793368E-3,-1.118527725E-2,-1.065264456E-3
1.067940785E0,-1.597896684E-3,-1.704423130E-2,5.326322280E-4
1.069941292E0,-1.065264456E-3,-2.237055451E-2,4.261057824E-3
1.071941566E0,-1.597896684E-3,-2.183792181E-2,7.989482954E-3
1.073941292E0,-1.065264456E-3,-2.663161233E-2,6.924218964E-3
1.075941175E0,-2.130528912E-3,-2.556634694E-2,9.587380104E-3
1.077942074E0,-2.130528912E-3,-2.450108156E-2,1.225054078E-2
1.079942933E0,-3.728425596E-3,-2.290318534E-2,1.331580617E-2
1.081942933E0,-3.195793368E-3,-1.757686399E-2,1.331580617E-2
1.083943285E0,-1.597896684E-3,-1.544633508E-2,1.331580617E-2
1.085943871E0,-1.065264456E-3,-1.331580617E-2,1.438106969E-2
1.087944730E0,-1.065264456E-3,-1.278317347E-2,1.438106969E-2
1.089945472E0,1.597896684E-3,-9.587380104E-3,1.278317347E-2
1.091945667E0,2.663161140E-3,-1.171790902E-2,1.118527725E-2
1.093946644E0,-2.130528912E-3,-2.396845073E-2,1.225054078E-2
1.095947425E0,-5.326322280E-3,-3.142530099E-2,8.522115648E-3
1.097948167E0,-6.391586736E-3,-3.515372798E-2,-5.326322280E-4
1.099948949E0,-6.924218964E-3,-3.621899337E-2,-9.587380104E-3
1.101949339E0,-5.326322280E-3,-3.888215125E-2,-1.864212751E-2
1.103949730E0,-3.728425596E-3,-4.261057824E-2,-2.343581803E-2
1.105948558E0,-3.195793368E-3,-4.953479767E-2,-2.929477207E-2
1.107947660E0,-4.261057824E-3,-5.805691332E-2,-3.302319720E-2
1.109948128E0,-6.391586736E-3,-7.563377917E-2,-3.462109342E-2
1.111948011E0,-9.587380104E-3,-8.735168725E-2,-3.994741663E-2
1.113947816E0,-1.331580617E-2,-9.427590668E-2,-4.687163606E-2
1.115947464E0,-1.491370238E-2,-1.054611802E-1,-4.527373984E-2
1.117946527E0,-1.651159860E-2,-1.107875034E-1,-4.953479767E-2
1.119946410E0,-1.544633508E-2,-1.171790883E-1,-5.006742850E-2
1.121946019E0,-1.384843793E-2,-1.171790883E-1,-5.326322466E-2
1.123946332E0,-1.012001187E-2,-1.134506613E-1,-5.273059011E-2
1.125945902E0,-6.924218964E-3,-1.086569726E-1,-5.592638254E-2
1.127945082E0,-7.989482954E-3,-1.001348570E-1,-5.486112088E-2
1.129944339E0,-5.858954508E-3,-8.681905270E-2,-5.486112088E-2
1.131944261E0,-8.522115648E-3,-6.977482140E-2,-5.432848632E-2
1.133944105E0,-9.587380104E-3,-5.273059011E-2,-5.432848632E-2
1.135944066E0,-1.012001187E-2,-3.089267015E-2,-5.379585549E-2
1.137944027E0,-6.924218964E-3,-1.331580617E-2,-5.592638254E-2
1.139943128E0,-3.195793368E-3,3.728425596E-3,-5.645901710E-2
1.141942855E0,1.065264456E-3,1.864212751E-2,-5.805691332E-2
1.143943714E0,4.261057824E-3,2.876213938E-2,-5.805691332E-2
1.145943675E0,3.728425596E-3,4.101268202E-2,-5.965480953E-2
1.147943988E0,3.728425596E-3,4.793690145E-2,-6.072007492E-2
1.149943910E0,5.326322280E-4,5.486112088E-2,-6.125270575E-2
1.151943988E0,5.326322280E-4,5.858954415E-2,-5.752427876E-2
1.153943128E0,-1.597896684E-3,5.912217870E-2,-6.018744037E-2
1.155943011E0,-3.195793368E-3,5.592638254E-2,-5.752427876E-2
1.157943089E0,-2.130528912E-3,5.379585549E-2,-5.645901710E-2
1.159943441E0,-1.065264456E-3,4.367584363E-2,-5.539375171E-2
1.161943871E0,-2.130528912E-3,3.568635881E-2,-5.273059011E-2
1.163943246E0,-1.065264456E-3,2.556634694E-2,-5.006742850E-2
1.165942386E0,-1.597896684E-3,1.757686399E-2,-4.580637068E-2
1.167941839E0,-6.924218964E-3,1.012001187E-2,-4.207794741E-2
1.169941644E0,-6.924218964E-3,5.858954508E-3,-3.728425503E-2
1.171941683E0,-1.171790902E-2,1.065264456E-3,-3.355583176E-2
1.173941214E0,-1.118527725E-2,-4.261057824E-3,-2.876213938E-2
1.175939886E0,-1.012001187E-2,-6.391586736E-3,-2.609897964E-2
1.177938910E0,-9.587380104E-3,-9.054748341E-3,-2.290318534E-2
1.179937738E0,-9.587380104E-3,-1.065264456E-2,-2.290318534E-2
1.181938011E0,-7.456851192E-3,-1.065264456E-2,-2.237055451E-2
1.183937230E0,-8.522115648E-3,-8.522115648E-3,-1.970739290E-2
1.185935082E0,-9.587380104E-3,-6.924218964E-3,-1.917476021E-2
1.187933636E0,-1.012001187E-2,1.597896684E-3,-1.704423130E-2
1.189932464E0,-1.384843793E-2,5.858954508E-3,-1.278317347E-2
1.191933128E0,-1.118527725E-2,9.587380104E-3,-1.278317347E-2
1.193934066E0,-1.118527725E-2,1.491370238E-2,-1.118527725E-2
1.195934261E0,-9.054748341E-3,1.810949668E-2,-1.065264456E-2
1.197934808E0,-8.522115648E-3,2.130528912E-2,-9.587380104E-3
1.199935667E0,-7.456851192E-3,2.556634694E-2,-8.522115648E-3
1.201935824E0,-8.522115648E-3,2.716424316E-2,-4.793690052E-3
1.203934925E0,-9.054748341E-3,3.089267015E-2,5.326322280E-4
1.205934886E0,-9.054748341E-3,3.249056637E-2,4.793690052E-3
1.207935589E0,-1.171790902E-2,3.408846259E-2,6.391586736E-3
1.209936644E0,-9.587380104E-3,3.462109342E-2,8.522115648E-3
1.211937074E0,-9.587380104E-3,3.462109342E-2,1.438106969E-2
1.213937542E0,-1.012001187E-2,3.568635881E-2,1.704423130E-2
1.215937308E0,-8.522115648E-3,3.408846259E-2,2.024002373E-2
1.217937074E0,-5.858954508E-3,3.408846259E-2,2.343581803E-2
1.219936488E0,-8.522115648E-3,3.355583176E-2,2.876213938E-2
1.221935628E0,-7.989482954E-3,3.142530099E-2,3.142530099E-2
1.223935082E0,-1.012001187E-2,3.089267015E-2,3.408846259E-2
1.225934808E0,-1.012001187E-2,3.249056637E-2,3.888215125E-2
1.227934691E0,-1.225054078E-2,2.982740477E-2,4.154531285E-2
1.229934339E0,-7.989482954E-3,3.036003746E-2,4.314320907E-2
1.231933988E0,-9.587380104E-3,2.929477207E-2,4.207794741E-2
1.233934222E0,-9.587380104E-3,2.822950855E-2,4.101268202E-2
1.235934457E0,-8.522115648E-3,2.663161233E-2,4.261057824E-2
1.237934300E0,-9.587380104E-3,2.290318534E-2,4.474110901E-2
1.239934652E0,-8.522115648E-3,2.396845073E-2,4.527373984E-2
1.241934261E0,-9.054748341E-3,2.024002373E-2,4.633900523E-2
1.243934105E0,-1.331580617E-2,2.077265643E-2,4.846953228E-2
1.245933988E0,-1.225054078E-2,2.183792181E-2,4.687163606E-2
1.247934066E0,-1.331580617E-2,2.024002373E-2,4.953479767E-2
1.249934261E0,-1.012001187E-2,2.183792181E-2,5.006742850E-2
1.251935042E0,-8.522115648E-3,2.183792181E-2,4.953479767E-2
1.253935394E0,-7.456851192E-3,2.130528912E-2,5.379585549E-2
1.255935824E0,-1.065264456E-2,2.183792181E-2,5.486112088E-2
1.257935980E0,-7.989482954E-3,2.556634694E-2,5.858954415E-2
1.259936371E0,-9.587380104E-3,2.769687586E-2,6.125270575E-2
1.261936292E0,-7.989482954E-3,3.302319720E-2,6.498113275E-2
1.263935667E0,-7.989482954E-3,3.355583176E-2,6.444849819E-2
1.265935433E0,-9.054748341E-3,3.515372798E-2,6.604639441E-2
1.267935433E0,-4.261057824E-3,3.621899337E-2,6.498113275E-2
1.269935199E0,-5.326322280E-3,3.834952042E-2,6.764429063E-2
1.271935121E0,-6.391586736E-3,4.101268202E-2,6.764429063E-2
1.273934925E0,-5.326322280E-3,4.314320907E-2,6.870955974E-2
1.275935824E0,-3.728425596E-3,4.261057824E-2,6.817692518E-2
1.277936019E0,-6.391586736E-3,4.314320907E-2,6.870955974E-2
1.279937230E0,-4.261057824E-3,4.154531285E-2,7.030745596E-2
1.281937347E0,-5.326322280E-3,4.101268202E-2,6.764429063E-2
1.283937425E0,-2.130528912E-3,3.888215125E-2,6.604639441E-2
1.285937933E0,-7.989482954E-3,3.621899337E-2,6.391586363E-2
1.287936566E0,-5.326322280E-3,3.195793182E-2,6.125270575E-2
1.289934183E0,-5.858954508E-3,2.876213938E-2,5.805691332E-2
1.291934535E0,-7.989482954E-3,2.609897964E-2,5.539375171E-2
1.293935042E0,-6.391586736E-3,2.396845073E-2,5.219795927E-2
1.295935160E0,-6.391586736E-3,2.130528912E-2,5.006742850E-2
1.297935238E0,-6.391586736E-3,1.810949668E-2,4.633900523E-2
1.299934535E0,-7.456851192E-3,1.970739290E-2,4.687163606E-2
1.301934183E0,-6.391586736E-3,1.757686399E-2,4.261057824E-2
1.303933753E0,-7.456851192E-3,1.704423130E-2,4.207794741E-2
1.305933324E0,-5.858954508E-3,1.810949668E-2,4.154531285E-2
1.307933324E0,-4.793690052E-3,2.024002373E-2,3.994741663E-2
1.309932933E0,-5.326322280E-3,2.024002373E-2,3.941478580E-2
1.311933167E0,-4.793690052E-3,2.396845073E-2,3.941478580E-2
1.313933558E0,-6.924218964E-3,2.556634694E-2,3.728425503E-2
1.315932855E0,-5.858954508E-3,2.876213938E-2,3.888215125E-2
1.317932152E0,-5.326322280E-3,3.355583176E-2,3.834952042E-2
1.319931605E0,-3.728425596E-3,3.355583176E-2,3.408846259E-2
1.321931410E0,-2.663161140E-3,3.675162420E-2,3.462109342E-2
1.323930824E0,-3.195793368E-3,3.834952042E-2,3.036003746E-2
1.325930628E0,-2.663161140E-3,3.941478580E-2,2.822950855E-2
1.327929925E0,-1.597896684E-3,4.048004746E-2,2.503371425E-2
1.329929183E0,-4.261057824E-3,4.314320907E-2,2.077265643E-2
1.331929300E0,-2.130528912E-3,3.888215125E-2,1.544633508E-2
1.333929417E0,-3.195793368E-3,3.834952042E-2,1.171790902E-2
1.335927933E0,-4.261057824E-3,3.515372798E-2,8.522115648E-3
1.337926644E0,-3.195793368E-3,3.249056637E-2,2.130528912E-3
1.339926722E0,-2.663161140E-3,2.876213938E-2,-5.326322280E-4
1.341926488E0,-1.597896684E-3,2.822950855E-2,-5.858954508E-3
1.343925433E0,-4.793690052E-3,2.290318534E-2,-1.012001187E-2
1.345924808E0,-5.326322280E-3,1.917476021E-2,-1.438106969E-2
1.347924378E0,-6.391586736E-3,1.917476021E-2,-1.491370238E-2
1.349923558E0,-5.326322280E-3,1.438106969E-2,-1.864212751E-2
1.351923011E0,-7.989482954E-3,1.438106969E-2,-2.024002373E-2
1.353922621E0,-5.326322280E-3,1.278317347E-2,-2.343581803E-2
1.355922464E0,-4.793690052E-3,1.225054078E-2,-2.450108156E-2
1.357922542E0,-6.924218964E-3,1.118527725E-2,-2.503371425E-2
1.359922191E0,-4.261057824E-3,1.438106969E-2,-2.556634694E-2
1.361921488E0,-4.793690052E-3,1.597896591E-2,-2.876213938E-2
1.363921449E0,-6.924218964E-3,1.704423130E-2,-2.929477207E-2
1.365920550E0,-4.261057824E-3,1.970739290E-2,-3.142530099E-2
1.367920277E0,-3.728425596E-3,2.077265643E-2,-3.089267015E-2
1.369919769E0,-4.793690052E-3,2.396845073E-2,-3.302319720E-2
1.371920316E0,-3.195793368E-3,2.769687586E-2,-3.675162420E-2
1.373919925E0,-1.065264456E-3,2.876213938E-2,-3.888215125E-2
1.375919535E0,-2.663161140E-3,2.876213938E-2,-4.154531285E-2
1.377918792E0,-3.195793368E-3,2.929477207E-2,-4.367584363E-2
1.379918089E0,-1.065264456E-3,2.982740477E-2,-4.687163606E-2
1.381915433E0,-2.130528912E-3,2.929477207E-2,-5.113269389E-2
1.383912777E0,-3.195793368E-3,2.663161233E-2,-5.432848632E-2
1.385911800E0,-2.130528912E-3,2.503371425E-2,-5.699164793E-2
1.387909730E0,-4.261057824E-3,2.450108156E-2,-5.965480953E-2
1.389908089E0,-3.728425596E-3,1.917476021E-2,-6.178534031E-2
1.391906253E0,-3.195793368E-3,1.651159860E-2,-6.551376730E-2
1.393904769E0,-2.130528912E-3,1.331580617E-2,-6.870955974E-2
1.395904691E0,-2.663161140E-3,9.054748341E-3,-7.030745596E-2
1.397904808E0,-4.261057824E-3,5.858954508E-3,-6.924218684E-2
1.399904144E0,-5.858954508E-3,4.793690052E-3,-6.870955974E-2
1.401903949E0,-4.793690052E-3,4.261057824E-3,-6.870955974E-2
1.403902738E0,-6.924218964E-3,5.326322280E-4,-6.657902896E-2
1.405901253E0,-4.793690052E-3,-1.065264456E-3,-6.657902896E-2
1.407900472E0,-3.195793368E-3,1.597896684E-3,-6.285060197E-2
1.409899496E0,-3.195793368E-3,0.000000000E0,-6.285060197E-2
1.411898207E0,-2.130528912E-3,5.326322280E-4,-6.125270575E-2
1.413897269E0,0.000000000E0,2.663161140E-3,-6.072007492E-2
1.415896371E0,-1.597896684E-3,6.924218964E-3,-5.805691332E-2
1.417895394E0,0.000000000E0,7.456851192E-3,-5.858954415E-2
1.419893402E0,0.000000000E0,1.012001187E-2,-5.752427876E-2
1.421891917E0,-1.065264456E-3,9.587380104E-3,-5.805691332E-2
1.423890785E0,0.000000000E0,1.171790902E-2,-5.699164793E-2
1.425890160E0,5.326322280E-4,9.587380104E-3,-5.699164793E-2
1.427889730E0,2.130528912E-3,1.225054078E-2,-5.805691332E-2
1.429888792E0,2.130528912E-3,1.118527725E-2,-5.858954415E-2
1.431888519E0,1.597896684E-3,1.012001187E-2,-5.965480953E-2
1.433887347E0,3.728425596E-3,8.522115648E-3,-5.965480953E-2
1.435886019E0,2.663161140E-3,6.924218964E-3,-5.912217870E-2
1.437884808E0,2.130528912E-3,4.261057824E-3,-5.805691332E-2
1.439884144E0,5.326322280E-4,-1.065264456E-3,-5.645901710E-2
1.441883441E0,1.065264456E-3,-2.130528912E-3,-5.432848632E-2
1.443883011E0,3.728425596E-3,-5.326322280E-3,-5.326322466E-2
1.445882425E0,2.130528912E-3,-9.054748341E-3,-4.793690145E-2
1.447881800E0,3.195793368E-3,-1.118527725E-2,-4.793690145E-2
1.449881722E0,4.261057824E-3,-8.522115648E-3,-4.367584363E-2
1.451881917E0,4.261057824E-3,-1.278317347E-2,-3.941478580E-2
1.453881644E0,4.261057824E-3,-1.651159860E-2,-3.462109342E-2
1.455881449E0,4.261057824E-3,-1.331580617E-2,-2.929477207E-2
1.457882035E0,5.858954508E-3,-1.278317347E-2,-2.450108156E-2
1.459882152E0,7.456851192E-3,-1.331580617E-2,-2.130528912E-2
1.461882308E0,7.456851192E-3,-1.171790902E-2,-1.757686399E-2
1.463882191E0,9.587380104E-3,-1.065264456E-2,-1.384843793E-2
1.465881917E0,9.054748341E-3,-9.587380104E-3,-1.331580617E-2
1.467880980E0,1.065264456E-2,-9.587380104E-3,-7.989482954E-3
1.469881136E0,9.587380104E-3,-5.858954508E-3,-6.924218964E-3
1.471881097E0,1.012001187E-2,-4.261057824E-3,-3.728425596E-3
1.473880355E0,1.118527725E-2,-4.261057824E-3,-3.728425596E-3
1.475879730E0,1.331580617E-2,-3.728425596E-3,5.326322280E-4
1.477878753E0,1.225054078E-2,-3.195793368E-3,5.326322280E-4
1.479877621E0,1.118527725E-2,-4.793690052E-3,5.326322280E-4
1.481876722E0,1.331580617E-2,-6.391586736E-3,3.728425596E-3
1.483875472E0,1.278317347E-2,-8.522115648E-3,6.391586736E-3
1.485873714E0,1.171790902E-2,-1.065264456E-2,7.989482954E-3
1.487871761E0,1.065264456E-2,-9.587380104E-3,1.012001187E-2
1.489870707E0,1.171790902E-2,-1.491370238E-2,1.384843793E-2
1.491869847E0,1.278317347E-2,-1.970739290E-2,1.917476021E-2
1.493869105E0,1.331580617E-2,-2.024002373E-2,2.237055451E-2
1.495869613E0,1.438106969E-2,-2.077265643E-2,2.450108156E-2
1.497869964E0,1.331580617E-2,-2.556634694E-2,2.929477207E-2
1.499869535E0,1.491370238E-2,-2.822950855E-2,3.568635881E-2
1.501867894E0,1.384843793E-2,-2.769687586E-2,3.781688958E-2
1.503865746E0,1.384843793E-2,-2.929477207E-2,4.580637068E-2
1.505864261E0,1.384843793E-2,-2.929477207E-2,4.740426689E-2
1.507862933E0,1.491370238E-2,-2.769687586E-2,5.432848632E-2
1.509862542E0,1.544633508E-2,-2.716424316E-2,5.592638254E-2
1.511862738E0,1.544633508E-2,-2.450108156E-2,6.018744037E-2
1.513862464E0,1.651159860E-2,-2.290318534E-2,5.965480953E-2
1.515862738E0,1.651159860E-2,-2.237055451E-2,5.858954415E-2
1.517862777E0,1.704423130E-2,-2.183792181E-2,6.178534031E-2
1.519862308E0,1.864212751E-2,-1.917476021E-2,6.338323653E-2
1.521861839E0,1.864212751E-2,-1.810949668E-2,6.338323653E-2
1.523860589E0,1.757686399E-2,-1.597896591E-2,6.444849819E-2
1.525859691E0,1.864212751E-2,-1.438106969E-2,6.764429063E-2
1.527858753E0,1.810949668E-2,-1.491370238E-2,6.604639441E-2
1.529857035E0,1.597896591E-2,-1.544633508E-2,6.764429063E-2
1.531855941E0,1.810949668E-2,-1.864212751E-2,6.764429063E-2
1.533854457E0,1.704423130E-2,-2.077265643E-2,6.817692518E-2
1.535853714E0,1.810949668E-2,-2.183792181E-2,6.977482140E-2
1.537853050E0,1.704423130E-2,-2.237055451E-2,7.030745596E-2
1.539852269E0,1.704423130E-2,-2.556634694E-2,7.297061384E-2
1.541850824E0,1.651159860E-2,-2.876213938E-2,7.456851006E-2
1.543849808E0,1.597896591E-2,-3.036003746E-2,7.723167539E-2
1.545849066E0,1.970739290E-2,-3.249056637E-2,7.723167539E-2
1.547848753E0,1.810949668E-2,-3.462109342E-2,7.776430249E-2
1.549848441E0,1.651159860E-2,-3.568635881E-2,8.096009493E-2
1.551847894E0,1.757686399E-2,-3.781688958E-2,8.255799860E-2
1.553847191E0,1.757686399E-2,-3.621899337E-2,8.468852192E-2
1.555845785E0,1.597896591E-2,-3.781688958E-2,8.468852192E-2
1.557844496E0,1.384843793E-2,-3.675162420E-2,8.628641814E-2
1.559842777E0,1.491370238E-2,-3.302319720E-2,8.628641814E-2
1.561841722E0,1.331580617E-2,-2.822950855E-2,8.522115648E-2
1.563840277E0,1.331580617E-2,-3.142530099E-2,8.255799860E-2
1.565838871E0,1.704423130E-2,-3.089267015E-2,8.149272949E-2
1.567837972E0,1.544633508E-2,-2.663161233E-2,7.829693705E-2
1.569838089E0,1.597896591E-2,-2.503371425E-2,7.723167539E-2
1.571837347E0,1.544633508E-2,-2.237055451E-2,7.243798673E-2
1.573836332E0,1.651159860E-2,-2.290318534E-2,7.190535218E-2
1.575835550E0,1.757686399E-2,-2.396845073E-2,6.817692518E-2
1.577835433E0,1.438106969E-2,-2.130528912E-2,6.657902896E-2
1.579835746E0,1.438106969E-2,-2.237055451E-2,6.604639441E-2
1.581835980E0,1.384843793E-2,-2.290318534E-2,6.391586363E-2
1.583835902E0,1.278317347E-2,-2.503371425E-2,6.125270575E-2
1.585836800E0,1.438106969E-2,-2.769687586E-2,5.912217870E-2
1.587836410E0,1.491370238E-2,-2.876213938E-2,5.699164793E-2
1.589835980E0,1.331580617E-2,-3.142530099E-2,5.592638254E-2
1.591835667E0,1.384843793E-2,-3.249056637E-2,5.592638254E-2
1.593835160E0,1.118527725E-2,-3.728425503E-2,5.326322466E-2
1.595835199E0,1.331580617E-2,-3.781688958E-2,5.273059011E-2
1.597835082E0,1.278317347E-2,-4.101268202E-2,5.113269389E-2
1.599834535E0,9.054748341E-3,-3.834952042E-2,5.006742850E-2
1.601834457E0,1.171790902E-2,-3.728425503E-2,4.846953228E-2
1.603833675E0,1.171790902E-2,-3.941478580E-2,4.527373984E-2
1.605832777E0,1.225054078E-2,-3.994741663E-2,4.261057824E-2
1.607831957E0,1.118527725E-2,-3.781688958E-2,4.048004746E-2
1.609831253E0,9.587380104E-3,-3.675162420E-2,3.462109342E-2
1.611830355E0,1.491370238E-2,-3.621899337E-2,3.408846259E-2
1.613829886E0,1.225054078E-2,-3.515372798E-2,2.982740477E-2
1.615829339E0,1.278317347E-2,-3.036003746E-2,2.343581803E-2
1.617828089E0,1.012001187E-2,-2.822950855E-2,1.651159860E-2
1.619826839E0,1.065264456E-2,-2.769687586E-2,1.171790902E-2
1.621825082E0,1.225054078E-2,-2.450108156E-2,6.924218964E-3
1.623823949E0,1.278317347E-2,-2.503371425E-2,3.728425596E-3
1.625823324E0,1.225054078E-2,-2.609897964E-2,0.000000000E0
1.627822503E0,1.278317347E-2,-2.396845073E-2,-2.663161140E-3
1.629821683E0,1.331580617E-2,-2.663161233E-2,-6.924218964E-3
1.631821253E0,1.171790902E-2,-2.663161233E-2,-9.054748341E-3
1.633820589E0,9.054748341E-3,-2.663161233E-2,-1.225054078E-2
1.635821449E0,1.118527725E-2,-3.036003746E-2,-1.384843793E-2
1.637822191E0,8.522115648E-3,-3.036003746E-2,-1.757686399E-2
1.639822386E0,9.054748341E-3,-3.195793182E-2,-1.864212751E-2
1.641822777E0,9.054748341E-3,-3.462109342E-2,-2.024002373E-2
1.643822816E0,1.065264456E-2,-3.675162420E-2,-2.343581803E-2
1.645822582E0,1.171790902E-2,-3.888215125E-2,-2.450108156E-2
1.647822386E0,1.118527725E-2,-3.834952042E-2,-2.609897964E-2
1.649821605E0,9.587380104E-3,-3.621899337E-2,-2.663161233E-2
1.651820902E0,7.456851192E-3,-3.834952042E-2,-2.929477207E-2
1.653820121E0,6.924218964E-3,-3.675162420E-2,-3.089267015E-2
1.655819144E0,9.587380104E-3,-3.568635881E-2,-3.408846259E-2
1.657818441E0,7.989482954E-3,-3.355583176E-2,-3.781688958E-2
1.659817738E0,1.012001187E-2,-3.142530099E-2,-4.101268202E-2
1.661816957E0,1.065264456E-2,-3.089267015E-2,-4.420847446E-2
1.663816175E0,1.118527725E-2,-2.822950855E-2,-4.793690145E-2
1.665815589E0,9.587380104E-3,-2.450108156E-2,-5.273059011E-2
1.667814144E0,9.587380104E-3,-2.343581803E-2,-5.379585549E-2
1.669813089E0,8.522115648E-3,-2.290318534E-2,-5.699164793E-2
1.671812230E0,6.391586736E-3,-2.077265643E-2,-6.178534031E-2
1.673811214E0,8.522115648E-3,-1.917476021E-2,-6.444849819E-2
1.675810277E0,7.989482954E-3,-1.864212751E-2,-6.551376730E-2
1.677809652E0,8.522115648E-3,-1.864212751E-2,-6.657902896E-2
1.679808675E0,1.012001187E-2,-2.396845073E-2,-6.870955974E-2
1.681806996E0,9.587380104E-3,-2.290318534E-2,-7.030745596E-2
1.683804964E0,1.012001187E-2,-2.663161233E-2,-6.977482140E-2
1.685802503E0,9.054748341E-3,-2.556634694E-2,-6.977482140E-2
1.687801058E0,7.456851192E-3,-2.929477207E-2,-6.711166352E-2
1.689799730E0,5.858954508E-3,-2.876213938E-2,-6.551376730E-2
1.691798519E0,7.989482954E-3,-2.929477207E-2,-6.551376730E-2
1.693796410E0,5.858954508E-3,-3.089267015E-2,-6.604639441E-2
1.695794496E0,7.989482954E-3,-2.929477207E-2,-6.391586363E-2
1.697792972E0,9.054748341E-3,-3.142530099E-2,-6.338323653E-2
1.699791957E0,1.065264456E-2,-2.929477207E-2,-6.285060197E-2
1.701791175E0,8.522115648E-3,-3.142530099E-2,-6.178534031E-2
1.703789769E0,4.793690052E-3,-2.822950855E-2,-6.125270575E-2
1.705788089E0,6.924218964E-3,-2.503371425E-2,-5.858954415E-2
1.707786917E0,5.326322280E-3,-2.450108156E-2,-6.178534031E-2
1.709786527E0,5.858954508E-3,-2.077265643E-2,-6.231797114E-2
1.711786253E0,5.326322280E-3,-1.970739290E-2,-6.551376730E-2
1.713785589E0,5.326322280E-3,-1.651159860E-2,-6.338323653E-2
1.715785707E0,6.391586736E-3,-1.384843793E-2,-6.498113275E-2
1.717786175E0,7.456851192E-3,-1.491370238E-2,-6.231797114E-2
1.719787308E0,7.456851192E-3,-1.225054078E-2,-6.178534031E-2
1.721788167E0,6.391586736E-3,-1.118527725E-2,-6.125270575E-2
1.723788050E0,7.989482954E-3,-9.587380104E-3,-6.072007492E-2
1.725787933E0,6.391586736E-3,-1.065264456E-2,-5.805691332E-2
1.727787933E0,2.130528912E-3,-7.456851192E-3,-5.645901710E-2
1.729787699E0,3.195793368E-3,-9.587380104E-3,-5.645901710E-2
1.731786957E0,1.597896684E-3,-1.171790902E-2,-5.273059011E-2
1.733786800E0,3.728425596E-3,-1.225054078E-2,-4.846953228E-2
1.735787269E0,3.728425596E-3,-1.012001187E-2,-4.633900523E-2
1.737788519E0,4.793690052E-3,-1.491370238E-2,-4.261057824E-2
1.739789652E0,5.858954508E-3,-1.544633508E-2,-3.728425503E-2
1.741790511E0,3.728425596E-3,-1.438106969E-2,-3.408846259E-2
1.743790785E0,5.326322280E-4,-1.651159860E-2,-2.769687586E-2
1.745789886E0,0.000000000E0,-1.384843793E-2,-2.450108156E-2
1.747789457E0,-2.130528912E-3,-1.384843793E-2,-2.183792181E-2
1.749789730E0,-5.326322280E-4,-1.225054078E-2,-1.757686399E-2
1.751790003E0,3.195793368E-3,-1.225054078E-2,-1.597896591E-2
1.753790589E0,5.326322280E-4,-8.522115648E-3,-1.225054078E-2
1.755790511E0,1.597896684E-3,-5.326322280E-3,-9.587380104E-3
1.757790902E0,3.195793368E-3,-3.728425596E-3,-1.012001187E-2
1.759791527E0,0.000000000E0,-2.663161140E-3,-7.456851192E-3
1.761792035E0,-1.065264456E-3,0.000000000E0,-6.924218964E-3
1.763792191E0,-1.065264456E-3,2.663161140E-3,-5.858954508E-3
1.765792425E0,-1.065264456E-3,3.728425596E-3,-2.663161140E-3
1.767792386E0,-2.663161140E-3,4.793690052E-3,-5.326322280E-4
1.769792464E0,-5.326322280E-4,6.924218964E-3,2.130528912E-3
1.771792660E0,-5.326322280E-4,7.456851192E-3,5.858954508E-3
1.773793050E0,-3.195793368E-3,9.054748341E-3,9.587380104E-3
1.775792230E0,-2.663161140E-3,8.522115648E-3,1.331580617E-2
1.777792230E0,-1.065264456E-3,5.858954508E-3,1.544633508E-2
1.779792113E0,-3.728425596E-3,5.326322280E-3,1.917476021E-2
1.781791996E0,-4.793690052E-3,4.793690052E-3,2.237055451E-2
1.783791761E0,-6.391586736E-3,4.261057824E-3,2.769687586E-2
1.785790824E0,-6.391586736E-3,5.326322280E-3,3.089267015E-2
1.787790746E0,-5.858954508E-3,5.858954508E-3,3.675162420E-2
1.789790667E0,-4.793690052E-3,1.065264456E-3,4.101268202E-2
1.791791214E0,-4.793690052E-3,4.261057824E-3,4.474110901E-2
1.793791332E0,-2.663161140E-3,1.597896684E-3,4.687163606E-2
1.795791800E0,-4.793690052E-3,4.793690052E-3,5.006742850E-2
1.797792347E0,-5.326322280E-3,5.858954508E-3,5.273059011E-2
1.799792738E0,-4.793690052E-3,7.989482954E-3,5.379585549E-2
1.801792699E0,-7.456851192E-3,1.065264456E-2,5.592638254E-2
1.803792386E0,-7.989482954E-3,1.278317347E-2,5.592638254E-2
1.805792230E0,-7.456851192E-3,1.384843793E-2,5.805691332E-2
1.807791449E0,-4.793690052E-3,1.544633508E-2,5.912217870E-2
1.809790785E0,-4.261057824E-3,1.651159860E-2,5.912217870E-2
1.811790628E0,-6.391586736E-3,1.917476021E-2,6.125270575E-2
1.813790511E0,-5.858954508E-3,2.130528912E-2,6.231797114E-2
1.815790121E0,-5.858954508E-3,2.183792181E-2,6.178534031E-2
1.817790160E0,-6.924218964E-3,2.237055451E-2,6.285060197E-2
1.819790394E0,-7.989482954E-3,2.290318534E-2,6.498113275E-2
1.821789808E0,-7.456851192E-3,2.183792181E-2,6.764429063E-2
1.823789535E0,-8.522115648E-3,2.290318534E-2,6.870955974E-2
1.825788128E0,-8.522115648E-3,2.183792181E-2,7.190535218E-2
1.827787113E0,-6.924218964E-3,1.864212751E-2,7.243798673E-2
1.829786800E0,-6.924218964E-3,1.810949668E-2,7.297061384E-2
1.831786917E0,-7.456851192E-3,1.597896591E-2,7.563377917E-2
1.833785785E0,-9.054748341E-3,1.597896591E-2,7.563377917E-2
1.835784847E0,-7.456851192E-3,1.544633508E-2,7.456851006E-2
1.837784808E0,-9.587380104E-3,1.651159860E-2,7.563377917E-2
1.839784222E0,-1.118527725E-2,1.544633508E-2,7.669904083E-2
1.841783949E0,-6.924218964E-3,1.544633508E-2,7.723167539E-2
1.843784261E0,-7.456851192E-3,1.704423130E-2,7.669904083E-2
1.845783832E0,-7.456851192E-3,1.810949668E-2,7.669904083E-2
1.847783363E0,-7.989482954E-3,1.864212751E-2,7.456851006E-2
1.849783832E0,-5.326322280E-3,1.970739290E-2,7.297061384E-2
1.851783949E0,-5.326322280E-3,2.077265643E-2,7.190535218E-2
1.853784105E0,-7.456851192E-3,2.343581803E-2,6.924218684E-2
1.855783636E0,-7.989482954E-3,2.450108156E-2,6.604639441E-2
1.857783636E0,-6.391586736E-3,3.089267015E-2,6.338323653E-2
1.859784457E0,-6.391586736E-3,2.716424316E-2,6.231797114E-2
1.861786097E0,-6.391586736E-3,3.195793182E-2,5.912217870E-2
1.863787386E0,-5.326322280E-3,2.982740477E-2,5.912217870E-2
1.865787621E0,-6.391586736E-3,3.195793182E-2,5.592638254E-2
1.867787113E0,-7.989482954E-3,3.036003746E-2,5.432848632E-2
1.869786644E0,-6.924218964E-3,2.929477207E-2,5.379585549E-2
1.871786683E0,-6.391586736E-3,2.822950855E-2,5.219795927E-2
1.873786136E0,-6.924218964E-3,3.142530099E-2,5.113269389E-2
1.875786058E0,-6.391586736E-3,2.929477207E-2,4.953479767E-2
1.877786527E0,-6.924218964E-3,2.822950855E-2,4.633900523E-2
1.879786683E0,-7.456851192E-3,2.663161233E-2,4.474110901E-2
1.881786449E0,-6.924218964E-3,2.556634694E-2,4.367584363E-2
1.883785941E0,-8.522115648E-3,2.343581803E-2,4.207794741E-2
1.885785824E0,-6.924218964E-3,2.503371425E-2,3.994741663E-2
1.887785394E0,-7.989482954E-3,2.290318534E-2,3.888215125E-2
1.889785160E0,-8.522115648E-3,2.343581803E-2,3.568635881E-2
1.891785082E0,-9.054748341E-3,2.396845073E-2,3.195793182E-2
1.893785707E0,-8.522115648E-3,2.663161233E-2,2.929477207E-2
1.895785667E0,-9.054748341E-3,2.396845073E-2,2.556634694E-2
1.897786644E0,-6.924218964E-3,2.663161233E-2,2.290318534E-2
1.899786957E0,-6.924218964E-3,2.716424316E-2,1.757686399E-2
1.901786761E0,-9.054748341E-3,2.822950855E-2,1.331580617E-2
1.903787113E0,-7.456851192E-3,3.036003746E-2,1.065264456E-2
1.905786878E0,-7.456851192E-3,3.036003746E-2,4.261057824E-3
1.907787074E0,-5.858954508E-3,3.089267015E-2,5.326322280E-4
1.909787464E0,-7.989482954E-3,3.195793182E-2,-3.195793368E-3
1.911787777E0,-8.522115648E-3,3.355583176E-2,-6.924218964E-3
1.913786878E0,-7.989482954E-3,3.355583176E-2,-1.118527725E-2
1.915786097E0,-7.456851192E-3,3.355583176E-2,-1.438106969E-2
1.917785238E0,-6.924218964E-3,3.568635881E-2,-1.810949668E-2
1.919784691E0,-7.456851192E-3,3.355583176E-2,-2.130528912E-2
1.921783363E0,-7.456851192E-3,3.408846259E-2,-2.183792181E-2
1.923782269E0,-8.522115648E-3,3.249056637E-2,-2.396845073E-2
1.925780472E0,-8.522115648E-3,3.142530099E-2,-2.716424316E-2
1.927779496E0,-9.054748341E-3,2.876213938E-2,-2.822950855E-2
1.929778558E0,-7.989482954E-3,3.089267015E-2,-3.302319720E-2
1.931776996E0,-9.054748341E-3,3.036003746E-2,-3.195793182E-2
1.933776292E0,-9.054748341E-3,2.982740477E-2,-3.515372798E-2
1.935774769E0,-1.065264456E-2,3.036003746E-2,-3.621899337E-2
1.937772542E0,-1.065264456E-2,3.142530099E-2,-4.048004746E-2
1.939770824E0,-9.054748341E-3,2.876213938E-2,-4.154531285E-2
1.941769964E0,-9.054748341E-3,2.929477207E-2,-4.580637068E-2
1.943769261E0,-9.587380104E-3,2.716424316E-2,-4.953479767E-2
1.945768988E0,-9.054748341E-3,3.036003746E-2,-5.113269389E-2
1.947768675E0,-8.522115648E-3,2.822950855E-2,-5.486112088E-2
1.949768167E0,-8.522115648E-3,3.036003746E-2,-5.699164793E-2
1.951767425E0,-9.054748341E-3,3.142530099E-2,-6.125270575E-2
1.953766136E0,-9.054748341E-3,3.089267015E-2,-6.657902896E-2
1.955764964E0,-1.171790902E-2,3.036003746E-2,-6.711166352E-2
1.957763714E0,-1.118527725E-2,3.408846259E-2,-6.924218684E-2
1.959762347E0,-1.278317347E-2,3.355583176E-2,-7.243798673E-2
1.961760824E0,-7.989482954E-3,3.302319720E-2,-7.350324839E-2
1.963759652E0,-8.522115648E-3,3.142530099E-2,-7.350324839E-2
1.965758207E0,-9.587380104E-3,3.302319720E-2,-7.563377917E-2
1.967756253E0,-9.587380104E-3,3.142530099E-2,-7.510114461E-2
1.969754457E0,-1.225054078E-2,2.982740477E-2,-7.350324839E-2
1.971752582E0,-1.012001187E-2,3.249056637E-2,-7.350324839E-2
1.973750980E0,-1.012001187E-2,2.822950855E-2,-7.456851006E-2
1.975750433E0,-1.118527725E-2,2.929477207E-2,-7.403588295E-2
1.977749691E0,-1.171790902E-2,2.876213938E-2,-7.403588295E-2
1.979749417E0,-1.012001187E-2,2.876213938E-2,-7.350324839E-2
1.981748792E0,-7.989482954E-3,2.290318534E-2,-7.350324839E-2
1.983748128E0,-9.587380104E-3,2.237055451E-2,-7.084008306E-2
1.985746722E0,-8.522115648E-3,2.716424316E-2,-7.137271762E-2
1.987745160E0,-1.065264456E-2,2.663161233E-2,-7.243798673E-2
1.989743636E0,-9.054748341E-3,2.716424316E-2,-7.137271762E-2
1.991741175E0,-1.012001187E-2,2.556634694E-2,-7.190535218E-2
1.993740355E0,-1.278317347E-2,2.556634694E-2,-7.137271762E-2
1.995739886E0,-1.012001187E-2,2.716424316E-2,-7.030745596E-2
1.997739925E0,-9.054748341E-3,2.450108156E-2,-7.243798673E-2
1.999740511E0,-7.456851192E-3,2.503371425E-2,-6.924218684E-2
2.001739886E0,-7.456851192E-3,2.556634694E-2,-6.817692518E-2
2.003739574E0,-7.989482954E-3,2.609897964E-2,-6.870955974E-2
2.005739496E0,-8.522115648E-3,2.609897964E-2,-6.657902896E-2
2.007739613E0,-9.054748341E-3,2.716424316E-2,-6.551376730E-2
2.009738832E0,-6.391586736E-3,2.503371425E-2,-6.285060197E-2
2.011737074E0,-6.924218964E-3,2.503371425E-2,-6.072007492E-2
2.013735121E0,-6.391586736E-3,2.183792181E-2,-5.645901710E-2
2.015735082E0,-5.858954508E-3,2.396845073E-2,-5.486112088E-2
2.017734222E0,-4.793690052E-3,2.130528912E-2,-5.060006306E-2
2.019733871E0,-6.924218964E-3,2.130528912E-2,-4.687163606E-2
2.021733089E0,-5.326322280E-3,2.237055451E-2,-4.474110901E-2
2.023731292E0,-3.728425596E-3,1.864212751E-2,-4.207794741E-2
2.025730355E0,-5.326322280E-3,1.917476021E-2,-3.834952042E-2
2.027729496E0,-4.793690052E-3,1.704423130E-2,-3.355583176E-2
2.029728597E0,-4.793690052E-3,1.544633508E-2,-3.089267015E-2
2.031728050E0,-4.793690052E-3,1.651159860E-2,-2.876213938E-2
2.033727308E0,-4.793690052E-3,1.544633508E-2,-2.556634694E-2
2.035727191E0,-3.195793368E-3,1.278317347E-2,-2.130528912E-2
2.037726917E0,-1.065264456E-3,1.651159860E-2,-2.077265643E-2
2.039727269E0,-1.597896684E-3,1.331580617E-2,-1.810949668E-2
2.041726410E0,0.000000000E0,1.438106969E-2,-1.438106969E-2
2.043726136E0,0.000000000E0,1.331580617E-2,-1.225054078E-2
2.045725277E0,-1.065264456E-3,1.438106969E-2,-9.587380104E-3
2.047724574E0,0.000000000E0,1.597896591E-2,-6.391586736E-3
2.049724964E0,1.065264456E-3,1.438106969E-2,-2.663161140E-3
2.051725707E0,2.130528912E-3,1.278317347E-2,-1.597896684E-3
2.053725941E0,3.195793368E-3,1.331580617E-2,2.130528912E-3
2.055726683E0,2.663161140E-3,1.118527725E-2,4.261057824E-3
2.057727660E0,2.130528912E-3,1.065264456E-2,9.587380104E-3
2.059728207E0,6.391586736E-3,1.171790902E-2,1.171790902E-2
2.061728167E0,2.663161140E-3,1.278317347E-2,1.651159860E-2
2.063728363E0,5.858954508E-3,9.587380104E-3,2.077265643E-2
2.065728246E0,4.261057824E-3,9.054748341E-3,2.183792181E-2
2.067728167E0,4.261057824E-3,6.924218964E-3,2.876213938E-2
2.069727582E0,4.793690052E-3,4.793690052E-3,3.036003746E-2
2.071726996E0,5.326322280E-3,1.065264456E-3,3.621899337E-2
2.073725628E0,7.989482954E-3,2.663161140E-3,3.994741663E-2
2.075724066E0,6.391586736E-3,0.000000000E0,4.420847446E-2
2.077723089E0,7.456851192E-3,1.597896684E-3,4.687163606E-2
2.079722621E0,5.858954508E-3,-1.065264456E-3,5.006742850E-2
2.081721839E0,7.456851192E-3,-2.130528912E-3,5.219795927E-2
2.083720785E0,5.326322280E-3,5.326322280E-4,5.486112088E-2
2.085719378E0,5.858954508E-3,-2.130528912E-3,5.645901710E-2
2.087719417E0,1.118527725E-2,-1.597896684E-3,5.805691332E-2
2.089718753E0,8.522115648E-3,-1.065264456E-3,5.965480953E-2
2.091718832E0,1.065264456E-2,-2.130528912E-3,6.444849819E-2
2.093719339E0,1.118527725E-2,-2.663161140E-3,6.551376730E-2
2.095719378E0,9.054748341E-3,-4.261057824E-3,6.657902896E-2
2.097719027E0,1.171790902E-2,-3.195793368E-3,6.657902896E-2
2.099718519E0,9.587380104E-3,-2.130528912E-3,6.711166352E-2
2.101717660E0,1.278317347E-2,-1.597896684E-3,6.817692518E-2
2.103716996E0,1.278317347E-2,-2.130528912E-3,6.977482140E-2
2.105716058E0,1.171790902E-2,-5.858954508E-3,6.977482140E-2
2.107716449E0,1.278317347E-2,-4.261057824E-3,7.297061384E-2
2.109717660E0,1.225054078E-2,-6.391586736E-3,7.350324839E-2
2.111718285E0,1.278317347E-2,-7.456851192E-3,7.456851006E-2
2.113718480E0,1.438106969E-2,-6.924218964E-3,7.776430249E-2
2.115718167E0,1.438106969E-2,-7.456851192E-3,7.829693705E-2
2.117717660E0,1.384843793E-2,-9.587380104E-3,7.989483327E-2
2.119717738E0,1.438106969E-2,-1.118527725E-2,7.989483327E-2
2.121718324E0,1.171790902E-2,-1.171790902E-2,8.202536404E-2
2.123719144E0,1.438106969E-2,-1.118527725E-2,8.362326026E-2
2.125719496E0,1.118527725E-2,-1.651159860E-2,8.362326026E-2
2.127719769E0,1.225054078E-2,-1.438106969E-2,8.202536404E-2
2.129719496E0,1.331580617E-2,-1.544633508E-2,8.309062570E-2
2.131718910E0,1.384843793E-2,-1.597896591E-2,8.309062570E-2
2.133719730E0,1.384843793E-2,-1.597896591E-2,8.255799860E-2
2.135720277E0,1.278317347E-2,-1.651159860E-2,8.202536404E-2
2.137720121E0,1.438106969E-2,-1.438106969E-2,7.989483327E-2
2.139720628E0,1.544633508E-2,-1.704423130E-2,7.669904083E-2
2.141721566E0,1.491370238E-2,-1.384843793E-2,7.776430249E-2
2.143722113E0,1.331580617E-2,-1.491370238E-2,7.350324839E-2
2.145721566E0,1.491370238E-2,-1.438106969E-2,7.190535218E-2
2.147721175E0,1.438106969E-2,-1.331580617E-2,6.870955974E-2
2.149721410E0,1.491370238E-2,-1.438106969E-2,6.711166352E-2
2.151721449E0,1.438106969E-2,-1.757686399E-2,6.657902896E-2
2.153721683E0,1.704423130E-2,-1.491370238E-2,6.338323653E-2
2.155722386E0,1.491370238E-2,-1.438106969E-2,6.285060197E-2
2.157724105E0,1.491370238E-2,-1.810949668E-2,6.072007492E-2
2.159725355E0,1.597896591E-2,-1.864212751E-2,5.965480953E-2
2.161726214E0,1.384843793E-2,-2.024002373E-2,5.752427876E-2
2.163727972E0,1.331580617E-2,-2.077265643E-2,5.486112088E-2
2.165729066E0,1.438106969E-2,-2.396845073E-2,5.486112088E-2
2.167729769E0,1.384843793E-2,-2.450108156E-2,5.219795927E-2
2.169730824E0,1.491370238E-2,-2.556634694E-2,4.900216311E-2
2.171731996E0,1.278317347E-2,-2.503371425E-2,4.633900523E-2
2.173733128E0,1.278317347E-2,-2.663161233E-2,4.474110901E-2
2.175733675E0,1.225054078E-2,-2.716424316E-2,4.207794741E-2
2.177734730E0,1.438106969E-2,-2.716424316E-2,4.048004746E-2
2.179735863E0,1.278317347E-2,-2.716424316E-2,3.675162420E-2
2.181736214E0,1.225054078E-2,-2.769687586E-2,3.249056637E-2
2.183735980E0,1.065264456E-2,-2.503371425E-2,2.876213938E-2
2.185737035E0,1.331580617E-2,-2.450108156E-2,2.343581803E-2
2.187737660E0,1.225054078E-2,-2.503371425E-2,2.077265643E-2
2.189737035E0,1.438106969E-2,-2.450108156E-2,1.704423130E-2
2.191737074E0,1.384843793E-2,-2.396845073E-2,1.438106969E-2
2.193737464E0,1.278317347E-2,-2.609897964E-2,1.012001187E-2
2.195738402E0,1.384843793E-2,-2.290318534E-2,7.456851192E-3
2.197739457E0,1.225054078E-2,-2.556634694E-2,4.793690052E-3
2.199740199E0,1.491370238E-2,-2.396845073E-2,-5.326322280E-4
2.201741097E0,1.225054078E-2,-2.450108156E-2,-2.663161140E-3
2.203741097E0,1.491370238E-2,-2.290318534E-2,-4.793690052E-3
2.205741527E0,1.225054078E-2,-2.556634694E-2,-8.522115648E-3
2.207742191E0,1.331580617E-2,-2.716424316E-2,-1.118527725E-2
2.209742738E0,1.331580617E-2,-2.982740477E-2,-1.331580617E-2
2.211743558E0,1.225054078E-2,-2.769687586E-2,-1.704423130E-2
2.213744144E0,1.118527725E-2,-3.302319720E-2,-2.024002373E-2
2.215744925E0,1.065264456E-2,-3.355583176E-2,-2.237055451E-2
2.217746605E0,1.118527725E-2,-3.302319720E-2,-2.237055451E-2
2.219747933E0,1.225054078E-2,-3.515372798E-2,-2.556634694E-2
2.221750003E0,1.171790902E-2,-3.515372798E-2,-2.876213938E-2
2.223751371E0,1.012001187E-2,-3.408846259E-2,-3.089267015E-2
2.225752347E0,1.225054078E-2,-3.515372798E-2,-3.249056637E-2
2.227753988E0,9.054748341E-3,-3.515372798E-2,-3.781688958E-2
2.229755003E0,1.171790902E-2,-3.355583176E-2,-3.994741663E-2
2.231755785E0,1.171790902E-2,-3.302319720E-2,-4.207794741E-2
2.233756410E0,1.118527725E-2,-3.302319720E-2,-4.314320907E-2
2.235757621E0,1.278317347E-2,-3.195793182E-2,-4.687163606E-2
2.237758910E0,1.225054078E-2,-3.089267015E-2,-4.846953228E-2
2.239760667E0,1.225054078E-2,-2.716424316E-2,-5.113269389E-2
2.241761566E0,1.118527725E-2,-2.716424316E-2,-5.379585549E-2
2.243762621E0,1.225054078E-2,-2.822950855E-2,-5.752427876E-2
2.245764066E0,1.331580617E-2,-2.556634694E-2,-5.805691332E-2
2.247765707E0,1.438106969E-2,-2.769687586E-2,-6.018744037E-2
2.249766839E0,1.278317347E-2,-2.663161233E-2,-6.231797114E-2
2.251767386E0,1.438106969E-2,-3.036003746E-2,-6.285060197E-2
2.253767777E0,1.438106969E-2,-3.089267015E-2,-6.498113275E-2
2.255768011E0,1.278317347E-2,-3.249056637E-2,-6.498113275E-2
2.257768402E0,1.118527725E-2,-3.195793182E-2,-6.391586363E-2
2.259768558E0,1.278317347E-2,-3.142530099E-2,-6.285060197E-2
2.261768558E0,1.225054078E-2,-3.515372798E-2,-6.285060197E-2
2.263768285E0,1.278317347E-2,-3.408846259E-2,-6.338323653E-2
2.265768792E0,1.065264456E-2,-3.781688958E-2,-6.551376730E-2
2.267770003E0,1.491370238E-2,-3.781688958E-2,-6.072007492E-2
2.269771136E0,1.065264456E-2,-3.994741663E-2,-6.231797114E-2
2.271772230E0,1.225054078E-2,-3.941478580E-2,-6.072007492E-2
2.273773519E0,1.225054078E-2,-4.048004746E-2,-5.858954415E-2
2.275775511E0,1.171790902E-2,-3.728425503E-2,-5.805691332E-2
2.277776683E0,9.587380104E-3,-3.621899337E-2,-5.858954415E-2
2.279777621E0,9.587380104E-3,-3.515372798E-2,-5.965480953E-2
2.281779222E0,1.278317347E-2,-3.462109342E-2,-5.965480953E-2
2.283781058E0,1.171790902E-2,-3.142530099E-2,-5.699164793E-2
2.285781878E0,1.331580617E-2,-2.876213938E-2,-5.645901710E-2
2.287781878E0,1.225054078E-2,-2.876213938E-2,-5.486112088E-2
2.289782152E0,1.278317347E-2,-2.556634694E-2,-5.592638254E-2
2.291783363E0,1.331580617E-2,-2.663161233E-2,-5.379585549E-2
2.293783597E0,1.331580617E-2,-2.663161233E-2,-5.379585549E-2
2.295784535E0,1.171790902E-2,-2.503371425E-2,-5.166532472E-2
2.297783089E0,1.278317347E-2,-2.663161233E-2,-4.953479767E-2
2.299782621E0,1.438106969E-2,-2.609897964E-2,-4.900216311E-2
2.301783363E0,1.278317347E-2,-2.343581803E-2,-4.633900523E-2
2.303783910E0,1.438106969E-2,-2.716424316E-2,-4.527373984E-2
2.305784339E0,9.587380104E-3,-2.716424316E-2,-4.207794741E-2
2.307785199E0,1.171790902E-2,-2.929477207E-2,-3.781688958E-2
2.309785160E0,9.054748341E-3,-2.929477207E-2,-3.728425503E-2
2.311785355E0,9.054748341E-3,-3.249056637E-2,-3.195793182E-2
2.313786292E0,9.587380104E-3,-3.249056637E-2,-2.769687586E-2
2.315786917E0,1.118527725E-2,-3.355583176E-2,-2.609897964E-2
2.317787347E0,8.522115648E-3,-3.355583176E-2,-2.183792181E-2
2.319788675E0,9.054748341E-3,-3.515372798E-2,-1.970739290E-2
2.321789535E0,1.171790902E-2,-3.568635881E-2,-1.544633508E-2
2.323790824E0,9.054748341E-3,-3.355583176E-2,-1.278317347E-2
2.325791566E0,1.012001187E-2,-3.302319720E-2,-1.012001187E-2
2.327792386E0,1.012001187E-2,-2.876213938E-2,-6.924218964E-3
2.329793011E0,5.858954508E-3,-2.556634694E-2,-2.130528912E-3
2.331794300E0,8.522115648E-3,-2.503371425E-2,-5.326322280E-4
2.333795355E0,7.456851192E-3,-2.077265643E-2,1.597896684E-3
2.335796175E0,8.522115648E-3,-1.970739290E-2,4.793690052E-3
2.337797855E0,6.924218964E-3,-1.810949668E-2,6.391586736E-3
2.339798636E0,9.587380104E-3,-1.704423130E-2,7.456851192E-3
2.341799925E0,9.054748341E-3,-1.331580617E-2,1.065264456E-2
2.343801488E0,5.858954508E-3,-1.384843793E-2,1.438106969E-2
2.345802152E0,6.391586736E-3,-1.225054078E-2,1.704423130E-2
2.347802191E0,6.924218964E-3,-1.384843793E-2,2.077265643E-2
2.349802035E0,6.924218964E-3,-1.384843793E-2,2.343581803E-2
2.351802347E0,4.793690052E-3,-1.491370238E-2,2.663161233E-2
2.353802621E0,6.924218964E-3,-1.704423130E-2,2.822950855E-2
2.355803167E0,5.858954508E-3,-2.183792181E-2,3.195793182E-2
2.357804300E0,5.858954508E-3,-2.024002373E-2,3.675162420E-2
2.359804886E0,4.261057824E-3,-2.396845073E-2,3.834952042E-2
2.361805746E0,2.663161140E-3,-2.077265643E-2,4.261057824E-2
2.363806136E0,4.793690052E-3,-2.396845073E-2,4.420847446E-2
2.365806761E0,5.326322280E-4,-2.237055451E-2,4.846953228E-2
2.367807660E0,1.597896684E-3,-2.396845073E-2,5.060006306E-2
2.369808050E0,3.728425596E-3,-2.396845073E-2,5.326322466E-2
2.371808832E0,-5.326322280E-4,-2.237055451E-2,5.432848632E-2
2.373809105E0,2.130528912E-3,-2.024002373E-2,5.539375171E-2
2.375809652E0,1.065264456E-3,-1.757686399E-2,5.858954415E-2
2.377810980E0,3.195793368E-3,-1.651159860E-2,5.805691332E-2
2.379812113E0,5.326322280E-4,-1.278317347E-2,6.178534031E-2
2.381812464E0,-1.065264456E-3,-9.587380104E-3,6.178534031E-2
2.383813089E0,-5.326322280E-4,-6.391586736E-3,6.391586363E-2
2.385814261E0,1.065264456E-3,-4.261057824E-3,6.444849819E-2
2.387814847E0,1.065264456E-3,-5.326322280E-4,6.551376730E-2
2.389814925E0,0.000000000E0,-5.326322280E-4,6.551376730E-2
2.391816214E0,3.195793368E-3,1.597896684E-3,6.551376730E-2
2.393816566E0,2.130528912E-3,1.065264456E-3,6.764429063E-2
2.395816996E0,0.000000000E0,3.195793368E-3,6.817692518E-2
2.397817855E0,1.597896684E-3,1.597896684E-3,6.870955974E-2
2.399818402E0,-5.326322280E-4,2.663161140E-3,6.977482140E-2
2.401819339E0,-5.326322280E-4,5.326322280E-3,7.137271762E-2
2.403820746E0,-2.130528912E-3,1.065264456E-3,7.243798673E-2
2.405821878E0,-1.065264456E-3,-2.130528912E-3,7.137271762E-2
2.407823324E0,-1.597896684E-3,-4.261057824E-3,7.190535218E-2
2.409824261E0,-2.130528912E-3,-4.793690052E-3,7.190535218E-2
2.411825238E0,-5.326322280E-4,-7.989482954E-3,7.137271762E-2
2.413825863E0,-5.858954508E-3,-7.989482954E-3,7.137271762E-2
2.415826214E0,-5.858954508E-3,-9.054748341E-3,7.084008306E-2
2.417826019E0,-2.663161140E-3,-7.456851192E-3,7.030745596E-2
2.419825824E0,-4.793690052E-3,-7.989482954E-3,7.030745596E-2
2.421826097E0,-2.663161140E-3,-4.261057824E-3,6.870955974E-2
2.423826839E0,-6.391586736E-3,-4.793690052E-3,6.870955974E-2
2.425827621E0,-5.326322280E-3,-5.326322280E-4,6.498113275E-2
2.427828792E0,-2.663161140E-3,1.065264456E-3,6.444849819E-2
2.429829847E0,-3.728425596E-3,2.663161140E-3,6.285060197E-2
2.431830824E0,-5.326322280E-3,6.391586736E-3,6.072007492E-2
2.433830277E0,-3.195793368E-3,1.118527725E-2,5.912217870E-2
2.435830511E0,-3.195793368E-3,1.438106969E-2,5.645901710E-2
2.437830433E0,-2.130528912E-3,1.704423130E-2,5.539375171E-2
2.439830355E0,-4.261057824E-3,1.917476021E-2,5.273059011E-2
2.441830863E0,-1.597896684E-3,1.651159860E-2,5.219795927E-2
2.443831214E0,-2.663161140E-3,1.917476021E-2,4.846953228E-2
2.445831410E0,-2.130528912E-3,2.077265643E-2,4.740426689E-2
2.447831371E0,-3.728425596E-3,1.704423130E-2,4.367584363E-2
2.449831410E0,-2.663161140E-3,1.597896591E-2,4.207794741E-2
2.451831019E0,-4.261057824E-3,1.544633508E-2,3.834952042E-2
2.453830667E0,-5.326322280E-3,1.491370238E-2,3.834952042E-2
2.455829339E0,-3.728425596E-3,1.278317347E-2,3.568635881E-2
2.457828832E0,-3.728425596E-3,6.924218964E-3,3.249056637E-2
2.459828558E0,-4.793690052E-3,4.793690052E-3,2.982740477E-2
2.461828285E0,-5.326322280E-3,4.793690052E-3,2.609897964E-2
2.463827894E0,-4.793690052E-3,1.597896684E-3,2.343581803E-2
2.465827152E0,-6.391586736E-3,3.728425596E-3,2.077265643E-2
2.467826644E0,-6.924218964E-3,3.195793368E-3,1.491370238E-2
2.469825746E0,-4.793690052E-3,3.195793368E-3,1.438106969E-2
2.471825199E0,-6.391586736E-3,5.326322280E-3,1.171790902E-2
2.473825160E0,-7.456851192E-3,8.522115648E-3,8.522115648E-3
2.475824808E0,-6.391586736E-3,1.065264456E-2,6.924218964E-3
2.477823363E0,-5.858954508E-3,1.278317347E-2,5.326322280E-3
2.479821761E0,-4.793690052E-3,1.438106969E-2,-5.326322280E-4
2.481820238E0,-3.728425596E-3,1.970739290E-2,-3.195793368E-3
2.483819730E0,-3.195793368E-3,2.290318534E-2,-5.858954508E-3
2.485818714E0,-5.326322280E-3,2.396845073E-2,-9.587380104E-3
2.487817542E0,-6.391586736E-3,2.822950855E-2,-1.278317347E-2
2.489817152E0,-4.793690052E-3,3.036003746E-2,-1.384843793E-2
2.491817113E0,-5.858954508E-3,2.929477207E-2,-1.757686399E-2
2.493816878E0,-5.326322280E-3,3.036003746E-2,-1.864212751E-2
2.495816449E0,-4.261057824E-3,3.142530099E-2,-2.130528912E-2
2.497815589E0,-4.793690052E-3,2.929477207E-2,-2.503371425E-2
2.499815628E0,-4.261057824E-3,2.716424316E-2,-2.769687586E-2
2.501814886E0,-4.793690052E-3,2.503371425E-2,-3.302319720E-2
2.503814378E0,-7.456851192E-3,2.237055451E-2,-3.621899337E-2
2.505813949E0,-9.054748341E-3,2.183792181E-2,-3.888215125E-2
2.507813480E0,-8.522115648E-3,1.810949668E-2,-4.154531285E-2
2.509813246E0,-6.924218964E-3,1.544633508E-2,-4.207794741E-2
2.511811800E0,-9.054748341E-3,1.278317347E-2,-4.474110901E-2
2.513810082E0,-8.522115648E-3,1.384843793E-2,-4.527373984E-2
2.515808871E0,-7.456851192E-3,1.331580617E-2,-4.846953228E-2
2.517808441E0,-9.587380104E-3,1.438106969E-2,-5.166532472E-2
2.519809183E0,-9.587380104E-3,1.491370238E-2,-5.379585549E-2
2.521810277E0,-1.118527725E-2,1.864212751E-2,-5.592638254E-2
2.523811175E0,-1.118527725E-2,2.024002373E-2,-5.752427876E-2
2.525812074E0,-1.065264456E-2,2.024002373E-2,-5.805691332E-2
2.527812621E0,-9.587380104E-3,2.396845073E-2,-5.805691332E-2
2.529812699E0,-8.522115648E-3,2.716424316E-2,-6.018744037E-2
2.531812503E0,-9.054748341E-3,2.929477207E-2,-5.858954415E-2
2.533812699E0,-8.522115648E-3,3.408846259E-2,-6.178534031E-2
2.535813519E0,-6.924218964E-3,3.355583176E-2,-6.338323653E-2
2.537814027E0,-9.054748341E-3,3.462109342E-2,-6.231797114E-2
2.539815277E0,-9.587380104E-3,3.728425503E-2,-6.231797114E-2
2.541815511E0,-1.065264456E-2,3.621899337E-2,-6.498113275E-2
2.543815941E0,-7.456851192E-3,3.888215125E-2,-6.391586363E-2
2.545816566E0,-1.012001187E-2,3.781688958E-2,-6.551376730E-2
2.547816605E0,-1.065264456E-2,3.781688958E-2,-6.551376730E-2
2.549816097E0,-9.054748341E-3,3.515372798E-2,-6.498113275E-2
2.551815667E0,-9.054748341E-3,3.355583176E-2,-6.604639441E-2
2.553814535E0,-9.587380104E-3,2.876213938E-2,-6.551376730E-2
2.555813402E0,-1.065264456E-2,2.663161233E-2,-6.604639441E-2
2.557813675E0,-1.171790902E-2,2.822950855E-2,-6.657902896E-2
2.559813988E0,-1.278317347E-2,2.290318534E-2,-6.657902896E-2
2.561813324E0,-1.438106969E-2,2.183792181E-2,-6.604639441E-2
2.563813011E0,-1.225054078E-2,2.290318534E-2,-6.444849819E-2
2.565812347E0,-1.225054078E-2,2.024002373E-2,-6.551376730E-2
2.567812464E0,-1.544633508E-2,2.024002373E-2,-6.444849819E-2
2.569811800E0,-1.118527725E-2,2.290318534E-2,-6.125270575E-2
2.571812503E0,-1.171790902E-2,2.130528912E-2,-5.965480953E-2
2.573812074E0,-1.171790902E-2,2.450108156E-2,-5.752427876E-2
2.575811800E0,-1.278317347E-2,2.556634694E-2,-5.592638254E-2
2.577811058E0,-1.225054078E-2,2.822950855E-2,-5.379585549E-2
2.579810277E0,-1.065264456E-2,3.249056637E-2,-5.166532472E-2
2.581810082E0,-9.587380104E-3,3.462109342E-2,-4.846953228E-2
2.583809925E0,-1.012001187E-2,3.568635881E-2,-4.580637068E-2
2.585809964E0,-1.225054078E-2,3.941478580E-2,-4.314320907E-2
2.587809457E0,-9.587380104E-3,3.994741663E-2,-4.207794741E-2
2.589810199E0,-9.054748341E-3,4.048004746E-2,-3.888215125E-2
2.591811371E0,-9.054748341E-3,3.994741663E-2,-3.728425503E-2
2.593812738E0,-9.054748341E-3,3.781688958E-2,-3.408846259E-2
2.595813207E0,-1.118527725E-2,4.048004746E-2,-3.195793182E-2
2.597813441E0,-9.587380104E-3,3.675162420E-2,-3.089267015E-2
2.599813675E0,-9.054748341E-3,3.728425503E-2,-3.036003746E-2
2.601813089E0,-1.012001187E-2,3.462109342E-2,-2.663161233E-2
2.603811957E0,-9.587380104E-3,3.408846259E-2,-2.343581803E-2
2.605811605E0,-1.012001187E-2,3.036003746E-2,-2.290318534E-2
2.607811878E0,-9.587380104E-3,2.876213938E-2,-2.077265643E-2
2.609812152E0,-1.012001187E-2,2.503371425E-2,-1.757686399E-2
2.611811800E0,-1.065264456E-2,2.343581803E-2,-1.544633508E-2
2.613811644E0,-8.522115648E-3,2.237055451E-2,-1.278317347E-2
2.615809574E0,-8.522115648E-3,2.290318534E-2,-1.118527725E-2
2.617808441E0,-9.587380104E-3,2.343581803E-2,-6.924218964E-3
2.619807542E0,-9.587380104E-3,2.183792181E-2,-2.130528912E-3
2.621805980E0,-9.054748341E-3,2.237055451E-2,-1.597896684E-3
2.623804808E0,-8.522115648E-3,2.450108156E-2,4.261057824E-3
2.625803636E0,-9.054748341E-3,2.556634694E-2,6.924218964E-3
2.627803011E0,-6.391586736E-3,2.556634694E-2,1.118527725E-2
2.629802464E0,-3.728425596E-3,2.769687586E-2,1.491370238E-2
2.631802152E0,-5.858954508E-3,2.929477207E-2,1.651159860E-2
2.633801917E0,-2.663161140E-3,3.142530099E-2,2.077265643E-2
2.635801800E0,-5.326322280E-3,3.355583176E-2,2.290318534E-2
2.637801019E0,-5.326322280E-3,3.462109342E-2,2.663161233E-2
2.639800082E0,-4.793690052E-3,3.302319720E-2,2.769687586E-2
2.641798792E0,-5.858954508E-3,3.302319720E-2,3.195793182E-2
2.643797660E0,-2.130528912E-3,3.249056637E-2,3.462109342E-2
2.645796878E0,-1.597896684E-3,3.036003746E-2,3.781688958E-2
2.647795980E0,-2.130528912E-3,2.982740477E-2,3.621899337E-2
2.649795667E0,-5.326322280E-4,2.663161233E-2,3.941478580E-2
2.651795199E0,-5.326322280E-4,2.663161233E-2,4.154531285E-2
2.653794339E0,-2.663161140E-3,2.503371425E-2,4.207794741E-2
2.655794339E0,5.326322280E-4,2.290318534E-2,4.367584363E-2
2.657794300E0,-1.597896684E-3,2.183792181E-2,4.687163606E-2
2.659794144E0,-2.663161140E-3,2.024002373E-2,4.633900523E-2
2.661794339E0,-1.597896684E-3,1.704423130E-2,4.793690145E-2
2.663793675E0,-1.065264456E-3,1.384843793E-2,4.900216311E-2
2.665792972E0,0.000000000E0,1.331580617E-2,5.166532472E-2
2.667791722E0,1.597896684E-3,1.438106969E-2,5.486112088E-2
2.669791292E0,5.326322280E-4,1.544633508E-2,5.486112088E-2
2.671790121E0,2.130528912E-3,1.544633508E-2,5.805691332E-2
2.673789417E0,5.326322280E-4,1.544633508E-2,5.592638254E-2
2.675787464E0,5.326322280E-4,1.704423130E-2,6.072007492E-2
2.677785746E0,3.195793368E-3,1.597896591E-2,6.231797114E-2
2.679784105E0,2.663161140E-3,1.864212751E-2,6.231797114E-2
2.681782738E0,2.130528912E-3,1.970739290E-2,6.551376730E-2
2.683781214E0,5.326322280E-3,1.917476021E-2,6.817692518E-2
2.685778988E0,3.728425596E-3,1.970739290E-2,6.764429063E-2
2.687777113E0,5.326322280E-3,2.077265643E-2,6.977482140E-2
2.689775511E0,5.326322280E-3,2.024002373E-2,6.711166352E-2
2.691774066E0,6.391586736E-3,2.024002373E-2,6.657902896E-2
2.693772777E0,4.261057824E-3,1.970739290E-2,6.498113275E-2
2.695770667E0,5.326322280E-3,1.864212751E-2,6.551376730E-2
2.697768910E0,3.728425596E-3,1.438106969E-2,6.551376730E-2
2.699767386E0,5.326322280E-3,1.118527725E-2,6.285060197E-2
2.701766371E0,6.924218964E-3,1.171790902E-2,6.178534031E-2
2.703764339E0,7.456851192E-3,9.587380104E-3,6.018744037E-2
2.705763011E0,7.456851192E-3,7.456851192E-3,6.072007492E-2
2.707761917E0,5.326322280E-3,3.728425596E-3,5.805691332E-2
2.709761253E0,3.728425596E-3,6.391586736E-3,5.699164793E-2
2.711760238E0,4.793690052E-3,2.663161140E-3,5.592638254E-2
2.713759378E0,5.326322280E-3,3.195793368E-3,5.432848632E-2
2.715758324E0,4.793690052E-3,1.597896684E-3,5.592638254E-2
2.717756410E0,6.391586736E-3,1.065264456E-3,5.379585549E-2
2.719753714E0,7.989482954E-3,0.000000000E0,5.166532472E-2
2.721750902E0,1.012001187E-2,0.000000000E0,5.166532472E-2
2.723749183E0,6.924218964E-3,2.663161140E-3,5.113269389E-2
2.725748089E0,8.522115648E-3,1.065264456E-3,4.900216311E-2
2.727746253E0,9.054748341E-3,3.728425596E-3,4.687163606E-2
2.729744144E0,8.522115648E-3,3.195793368E-3,4.633900523E-2
2.731741761E0,9.587380104E-3,4.793690052E-3,4.420847446E-2
2.733739691E0,6.924218964E-3,5.858954508E-3,4.314320907E-2
2.735738128E0,6.391586736E-3,4.261057824E-3,3.994741663E-2
2.737736996E0,7.989482954E-3,2.663161140E-3,3.728425503E-2
2.739735121E0,7.989482954E-3,3.195793368E-3,3.462109342E-2
2.741732464E0,9.054748341E-3,2.130528912E-3,3.089267015E-2
2.743729925E0,8.522115648E-3,3.728425596E-3,2.769687586E-2
2.745727582E0,7.456851192E-3,1.597896684E-3,2.450108156E-2
2.747724808E0,6.924218964E-3,-1.065264456E-3,2.077265643E-2
2.749722464E0,6.924218964E-3,-3.195793368E-3,1.704423130E-2
2.751721644E0,5.326322280E-3,-4.793690052E-3,1.544633508E-2
2.753720121E0,6.924218964E-3,-6.924218964E-3,1.225054078E-2
2.755718050E0,5.858954508E-3,-8.522115648E-3,9.054748341E-3
2.757715628E0,6.391586736E-3,-1.065264456E-2,7.989482954E-3
2.759714496E0,9.054748341E-3,-1.225054078E-2,3.728425596E-3
2.761712425E0,6.391586736E-3,-1.278317347E-2,3.728425596E-3
2.763711566E0,6.391586736E-3,-1.384843793E-2,1.597896684E-3
2.765710160E0,7.456851192E-3,-1.278317347E-2,0.000000000E0
2.767709378E0,4.793690052E-3,-1.331580617E-2,-2.130528912E-3
2.769708714E0,4.793690052E-3,-1.118527725E-2,-4.261057824E-3
2.771707074E0,7.989482954E-3,-1.278317347E-2,-5.326322280E-3
2.773705941E0,7.989482954E-3,-1.225054078E-2,-7.456851192E-3
2.775704144E0,6.924218964E-3,-1.171790902E-2,-1.225054078E-2
2.777702425E0,7.456851192E-3,-1.065264456E-2,-1.331580617E-2
2.779700667E0,7.989482954E-3,-1.065264456E-2,-1.491370238E-2
2.781699222E0,1.012001187E-2,-9.587380104E-3,-1.864212751E-2
2.783697621E0,9.054748341E-3,-9.054748341E-3,-2.077265643E-2
2.785696019E0,9.054748341E-3,-1.012001187E-2,-2.343581803E-2
2.787695316E0,7.989482954E-3,-1.171790902E-2,-2.769687586E-2
2.789695003E0,7.989482954E-3,-1.278317347E-2,-2.822950855E-2
2.791692894E0,6.924218964E-3,-1.171790902E-2,-3.302319720E-2
2.793691175E0,8.522115648E-3,-1.438106969E-2,-3.249056637E-2
2.795690121E0,8.522115648E-3,-1.597896591E-2,-3.728425503E-2
2.797688949E0,7.456851192E-3,-1.704423130E-2,-3.994741663E-2
2.799687816E0,9.587380104E-3,-1.810949668E-2,-4.101268202E-2
2.801686449E0,5.326322280E-3,-1.917476021E-2,-4.367584363E-2
2.803685355E0,7.456851192E-3,-2.183792181E-2,-4.314320907E-2
2.805684222E0,8.522115648E-3,-2.130528912E-2,-4.580637068E-2
2.807683324E0,6.924218964E-3,-2.290318534E-2,-4.740426689E-2
2.809682035E0,6.924218964E-3,-2.503371425E-2,-4.846953228E-2
2.811680941E0,1.012001187E-2,-2.183792181E-2,-4.846953228E-2
2.813679222E0,1.065264456E-2,-2.503371425E-2,-4.793690145E-2
2.815676800E0,1.012001187E-2,-2.450108156E-2,-4.846953228E-2
2.817675121E0,1.012001187E-2,-2.450108156E-2,-4.846953228E-2
2.819674964E0,1.012001187E-2,-2.396845073E-2,-4.793690145E-2
2.821674222E0,1.012001187E-2,-2.183792181E-2,-4.580637068E-2
2.823672855E0,1.065264456E-2,-2.343581803E-2,-4.953479767E-2
2.825670941E0,1.225054078E-2,-2.237055451E-2,-4.687163606E-2
2.827669730E0,9.587380104E-3,-2.183792181E-2,-4.687163606E-2
2.829667777E0,1.225054078E-2,-2.343581803E-2,-4.740426689E-2
2.831667738E0,1.225054078E-2,-2.077265643E-2,-4.793690145E-2
2.833666605E0,1.384843793E-2,-2.130528912E-2,-4.846953228E-2
2.835665902E0,1.278317347E-2,-2.290318534E-2,-5.060006306E-2
2.837664808E0,1.225054078E-2,-2.237055451E-2,-5.006742850E-2
2.839663167E0,1.331580617E-2,-2.343581803E-2,-5.219795927E-2
2.841661878E0,1.065264456E-2,-2.503371425E-2,-5.006742850E-2
2.843661058E0,1.278317347E-2,-2.663161233E-2,-5.060006306E-2
2.845660160E0,1.225054078E-2,-2.876213938E-2,-5.006742850E-2
2.847659886E0,1.012001187E-2,-2.822950855E-2,-4.953479767E-2
2.849659183E0,1.225054078E-2,-2.822950855E-2,-4.740426689E-2
2.851658167E0,1.331580617E-2,-2.876213938E-2,-4.740426689E-2
2.853657074E0,1.065264456E-2,-3.249056637E-2,-4.580637068E-2
2.855655472E0,1.118527725E-2,-2.982740477E-2,-4.207794741E-2
2.857653792E0,1.171790902E-2,-3.089267015E-2,-4.101268202E-2
2.859652503E0,1.331580617E-2,-3.195793182E-2,-4.048004746E-2
2.861652113E0,1.331580617E-2,-3.249056637E-2,-3.621899337E-2
2.863651761E0,1.331580617E-2,-3.195793182E-2,-3.195793182E-2
2.865651800E0,1.384843793E-2,-3.195793182E-2,-2.982740477E-2
2.867651761E0,1.278317347E-2,-3.249056637E-2,-2.876213938E-2
2.869652152E0,1.225054078E-2,-3.089267015E-2,-2.503371425E-2
2.871651839E0,1.544633508E-2,-2.982740477E-2,-2.290318534E-2
2.873650902E0,1.384843793E-2,-3.036003746E-2,-2.130528912E-2
2.875650589E0,1.491370238E-2,-2.822950855E-2,-1.757686399E-2
2.877650785E0,1.597896591E-2,-3.142530099E-2,-1.704423130E-2
2.879650121E0,1.651159860E-2,-2.769687586E-2,-1.491370238E-2
2.881649496E0,1.491370238E-2,-2.929477207E-2,-1.278317347E-2
2.883648324E0,1.491370238E-2,-2.769687586E-2,-1.118527725E-2
2.885647230E0,1.651159860E-2,-2.716424316E-2,-1.012001187E-2
2.887646058E0,1.438106969E-2,-2.929477207E-2,-9.054748341E-3
2.889644417E0,1.544633508E-2,-2.982740477E-2,-5.326322280E-3
2.891642660E0,1.491370238E-2,-3.195793182E-2,-3.728425596E-3
2.893642230E0,1.544633508E-2,-3.195793182E-2,-1.597896684E-3
2.895641332E0,1.491370238E-2,-3.302319720E-2,5.326322280E-4
2.897641332E0,1.544633508E-2,-3.249056637E-2,3.195793368E-3
2.899640863E0,1.438106969E-2,-3.462109342E-2,7.456851192E-3
2.901639613E0,1.384843793E-2,-3.462109342E-2,1.065264456E-2
2.903637503E0,1.597896591E-2,-3.408846259E-2,1.225054078E-2
2.905635980E0,1.491370238E-2,-3.355583176E-2,1.917476021E-2
2.907634457E0,1.384843793E-2,-3.195793182E-2,2.130528912E-2
2.909633441E0,1.438106969E-2,-3.302319720E-2,2.343581803E-2
2.911632386E0,1.544633508E-2,-3.195793182E-2,2.769687586E-2
2.913631644E0,1.384843793E-2,-3.089267015E-2,2.982740477E-2
2.915631214E0,1.438106969E-2,-2.876213938E-2,3.142530099E-2
2.917630550E0,1.704423130E-2,-2.929477207E-2,3.515372798E-2
2.919629769E0,1.384843793E-2,-2.876213938E-2,3.675162420E-2
2.921629105E0,1.384843793E-2,-2.822950855E-2,4.101268202E-2
2.923628246E0,1.278317347E-2,-3.089267015E-2,4.207794741E-2
2.925627660E0,1.491370238E-2,-2.716424316E-2,4.261057824E-2
2.927626878E0,1.438106969E-2,-2.929477207E-2,4.474110901E-2
2.929626957E0,1.331580617E-2,-3.089267015E-2,4.527373984E-2
2.931627152E0,1.171790902E-2,-3.036003746E-2,4.633900523E-2
2.933626566E0,1.331580617E-2,-3.036003746E-2,4.793690145E-2
2.935626058E0,1.225054078E-2,-3.036003746E-2,5.006742850E-2
2.937625199E0,1.491370238E-2,-2.929477207E-2,5.006742850E-2
2.939624769E0,1.065264456E-2,-2.876213938E-2,5.379585549E-2
2.941625199E0,1.065264456E-2,-3.089267015E-2,5.379585549E-2
2.943625707E0,1.225054078E-2,-3.249056637E-2,5.699164793E-2
2.945626175E0,1.065264456E-2,-3.089267015E-2,5.699164793E-2
2.947626566E0,9.054748341E-3,-3.142530099E-2,5.805691332E-2
2.949626800E0,1.012001187E-2,-2.769687586E-2,6.018744037E-2
2.951627308E0,7.989482954E-3,-2.982740477E-2,6.125270575E-2
2.953627855E0,1.012001187E-2,-2.822950855E-2,6.338323653E-2
2.955627855E0,9.054748341E-3,-2.769687586E-2,6.444849819E-2
2.957628753E0,9.587380104E-3,-2.450108156E-2,6.551376730E-2
2.959629808E0,1.065264456E-2,-2.663161233E-2,6.817692518E-2
2.961630511E0,7.989482954E-3,-2.396845073E-2,6.764429063E-2
2.963631332E0,7.989482954E-3,-2.290318534E-2,6.657902896E-2
2.965631371E0,9.054748341E-3,-2.237055451E-2,6.764429063E-2
2.967631488E0,7.989482954E-3,-2.556634694E-2,6.657902896E-2
2.969631605E0,8.522115648E-3,-2.290318534E-2,6.551376730E-2
2.971631839E0,1.012001187E-2,-2.343581803E-2,6.444849819E-2
2.973631253E0,7.456851192E-3,-2.237055451E-2,6.444849819E-2
2.975629964E0,7.456851192E-3,-2.290318534E-2,6.551376730E-2
2.977628636E0,8.522115648E-3,-2.183792181E-2,6.285060197E-2
2.979627699E0,5.858954508E-3,-2.343581803E-2,6.125270575E-2
2.981626839E0,3.195793368E-3,-2.343581803E-2,6.072007492E-2
2.983625433E0,4.261057824E-3,-2.396845073E-2,6.125270575E-2
2.985623714E0,5.858954508E-3,-2.609897964E-2,5.752427876E-2
2.987623011E0,5.858954508E-3,-2.609897964E-2,5.805691332E-2
2.989621839E0,5.858954508E-3,-2.556634694E-2,5.805691332E-2
2.991620980E0,5.326322280E-3,-2.237055451E-2,5.592638254E-2
2.993620003E0,2.130528912E-3,-2.396845073E-2,5.539375171E-2
2.995619222E0,2.663161140E-3,-2.290318534E-2,5.326322466E-2
2.997618480E0,3.728425596E-3,-2.237055451E-2,5.273059011E-2
2.999617621E0,3.195793368E-3,-2.024002373E-2,5.326322466E-2
3.001616839E0,4.793690052E-3,-1.970739290E-2,4.953479767E-2
3.003615980E0,4.261057824E-3,-1.704423130E-2,4.953479767E-2
3.005614535E0,5.326322280E-3,-1.384843793E-2,4.740426689E-2
3.007613558E0,1.597896684E-3,-1.491370238E-2,4.314320907E-2
3.009612660E0,3.728425596E-3,-1.331580617E-2,4.154531285E-2
3.011611214E0,5.326322280E-3,-1.331580617E-2,4.048004746E-2
3.013611019E0,4.261057824E-3,-1.012001187E-2,3.888215125E-2
3.015609808E0,3.728425596E-3,-1.171790902E-2,3.355583176E-2
3.017608792E0,3.195793368E-3,-1.118527725E-2,3.249056637E-2
3.019608402E0,4.261057824E-3,-9.587380104E-3,2.716424316E-2
3.021608324E0,4.793690052E-3,-1.118527725E-2,2.609897964E-2
3.023607699E0,4.261057824E-3,-1.225054078E-2,2.077265643E-2
3.025607464E0,3.728425596E-3,-1.012001187E-2,1.757686399E-2
3.027607816E0,1.597896684E-3,-1.225054078E-2,1.704423130E-2
3.029608519E0,2.130528912E-3,-1.438106969E-2,1.491370238E-2
3.031608402E0,1.065264456E-3,-1.438106969E-2,1.225054078E-2
3.033607621E0,3.195793368E-3,-1.491370238E-2,9.054748341E-3
3.035607074E0,5.326322280E-4,-1.438106969E-2,5.858954508E-3
3.037606722E0,-5.326322280E-4,-1.544633508E-2,3.728425596E-3
3.039606175E0,1.065264456E-3,-1.544633508E-2,2.663161140E-3
3.041605628E0,5.326322280E-4,-1.438106969E-2,5.326322280E-4
3.043605160E0,1.065264456E-3,-1.225054078E-2,-1.597896684E-3
3.045604417E0,1.597896684E-3,-1.331580617E-2,-4.261057824E-3
3.047601605E0,-5.326322280E-4,-9.587380104E-3,-6.391586736E-3
3.049599027E0,5.326322280E-4,-7.989482954E-3,-7.456851192E-3
3.051595863E0,3.728425596E-3,-4.793690052E-3,-1.012001187E-2
3.053594417E0,-1.065264456E-3,-3.195793368E-3,-1.171790902E-2
3.055593988E0,1.065264456E-3,-1.065264456E-3,-1.597896591E-2
3.057593246E0,1.597896684E-3,1.065264456E-3,-2.130528912E-2
3.059592542E0,2.663161140E-3,3.195793368E-3,-2.130528912E-2
3.061590785E0,-5.326322280E-4,3.195793368E-3,-2.556634694E-2
3.063589808E0,1.065264456E-3,4.261057824E-3,-2.876213938E-2
3.065588988E0,0.000000000E0,5.858954508E-3,-3.036003746E-2
3.067588089E0,1.065264456E-3,4.261057824E-3,-3.249056637E-2
3.069587230E0,1.065264456E-3,3.728425596E-3,-3.675162420E-2
3.071586097E0,2.130528912E-3,3.195793368E-3,-3.941478580E-2
3.073584378E0,0.000000000E0,1.597896684E-3,-4.207794741E-2
3.075583480E0,0.000000000E0,2.130528912E-3,-4.314320907E-2
3.077583050E0,0.000000000E0,5.326322280E-4,-4.420847446E-2
3.079582855E0,0.000000000E0,-1.065264456E-3,-4.580637068E-2
3.081582425E0,-1.597896684E-3,-1.597896684E-3,-4.633900523E-2
3.083581683E0,-1.065264456E-3,-2.130528912E-3,-4.687163606E-2
3.085581722E0,-5.326322280E-4,-2.130528912E-3,-5.113269389E-2
3.087581683E0,-2.130528912E-3,-3.728425596E-3,-4.900216311E-2
3.089581527E0,-2.663161140E-3,-1.065264456E-3,-4.953479767E-2
3.091580746E0,-4.261057824E-3,1.065264456E-3,-5.166532472E-2
3.093580394E0,-2.663161140E-3,2.130528912E-3,-5.273059011E-2
3.095579691E0,-3.728425596E-3,3.728425596E-3,-5.113269389E-2
3.097578988E0,-4.793690052E-3,6.924218964E-3,-5.326322466E-2
3.099578128E0,-1.597896684E-3,9.587380104E-3,-5.219795927E-2
3.101577855E0,-3.195793368E-3,1.225054078E-2,-5.432848632E-2
3.103576136E0,-2.130528912E-3,1.384843793E-2,-5.166532472E-2
3.105575160E0,-2.663161140E-3,1.704423130E-2,-5.645901710E-2
3.107573832E0,-2.663161140E-3,1.810949668E-2,-5.699164793E-2
3.109572972E0,-3.195793368E-3,1.810949668E-2,-5.805691332E-2
3.111571957E0,-3.728425596E-3,1.917476021E-2,-5.699164793E-2
3.113571097E0,-4.793690052E-3,1.970739290E-2,-5.699164793E-2
3.115570433E0,-2.663161140E-3,1.917476021E-2,-5.805691332E-2
3.117570277E0,-5.326322280E-3,1.810949668E-2,-5.752427876E-2
3.119570082E0,-4.261057824E-3,1.864212751E-2,-5.699164793E-2
3.121570355E0,-3.195793368E-3,1.757686399E-2,-5.752427876E-2
3.123570667E0,-4.261057824E-3,1.438106969E-2,-5.539375171E-2
3.125570316E0,-6.391586736E-3,1.118527725E-2,-5.379585549E-2
3.127569886E0,-4.793690052E-3,1.278317347E-2,-5.379585549E-2
3.129569417E0,-6.391586736E-3,1.012001187E-2,-5.006742850E-2
3.131569417E0,-7.456851192E-3,1.012001187E-2,-4.900216311E-2
3.133569105E0,-6.391586736E-3,8.522115648E-3,-4.793690145E-2
3.135567503E0,-7.989482954E-3,9.054748341E-3,-4.633900523E-2
3.137566253E0,-6.924218964E-3,1.171790902E-2,-4.207794741E-2
3.139565160E0,-7.989482954E-3,1.065264456E-2,-3.941478580E-2
3.141564300E0,-9.054748341E-3,1.118527725E-2,-3.941478580E-2
3.143563011E0,-7.456851192E-3,1.597896591E-2,-3.621899337E-2
3.145562152E0,-9.587380104E-3,1.544633508E-2,-3.621899337E-2
3.147561839E0,-9.054748341E-3,2.130528912E-2,-3.408846259E-2
3.149560746E0,-9.587380104E-3,2.343581803E-2,-3.355583176E-2
3.151559261E0,-7.989482954E-3,2.609897964E-2,-2.769687586E-2
3.153558636E0,-8.522115648E-3,2.822950855E-2,-2.982740477E-2
3.155557738E0,-7.456851192E-3,2.876213938E-2,-2.663161233E-2
3.157555667E0,-6.391586736E-3,3.142530099E-2,-2.556634694E-2
3.159554652E0,-8.522115648E-3,3.142530099E-2,-2.290318534E-2
3.161553792E0,-7.989482954E-3,3.195793182E-2,-2.077265643E-2
3.163553128E0,-6.391586736E-3,3.089267015E-2,-1.970739290E-2
3.165552386E0,-7.989482954E-3,3.142530099E-2,-1.704423130E-2
3.167552425E0,-9.054748341E-3,2.982740477E-2,-1.651159860E-2
3.169552699E0,-7.989482954E-3,2.769687586E-2,-1.331580617E-2
3.171552425E0,-1.012001187E-2,2.822950855E-2,-1.065264456E-2
3.173552269E0,-1.012001187E-2,2.396845073E-2,-5.858954508E-3
3.175552191E0,-1.012001187E-2,2.450108156E-2,-5.326322280E-3
3.177552152E0,-1.065264456E-2,2.130528912E-2,-1.597896684E-3
3.179552582E0,-9.054748341E-3,2.130528912E-2,2.663161140E-3
3.181552542E0,-1.225054078E-2,2.024002373E-2,3.728425596E-3
3.183551878E0,-1.225054078E-2,2.077265643E-2,7.456851192E-3
3.185551449E0,-1.012001187E-2,1.970739290E-2,1.012001187E-2
3.187551058E0,-1.171790902E-2,2.077265643E-2,1.278317347E-2
3.189551332E0,-1.118527725E-2,2.024002373E-2,1.757686399E-2
3.191551761E0,-1.171790902E-2,2.237055451E-2,1.917476021E-2
3.193552152E0,-9.587380104E-3,2.609897964E-2,2.237055451E-2
3.195552230E0,-9.054748341E-3,2.450108156E-2,2.503371425E-2
3.197552113E0,-9.054748341E-3,2.769687586E-2,2.769687586E-2
3.199552386E0,-1.012001187E-2,3.195793182E-2,2.876213938E-2
3.201552386E0,-9.054748341E-3,3.142530099E-2,2.982740477E-2
3.203552035E0,-1.171790902E-2,3.515372798E-2,3.195793182E-2
3.205551683E0,-9.587380104E-3,3.621899337E-2,3.195793182E-2
3.207551488E0,-9.587380104E-3,3.781688958E-2,3.462109342E-2
3.209551410E0,-6.924218964E-3,3.781688958E-2,3.621899337E-2
3.211551488E0,-9.587380104E-3,3.781688958E-2,3.728425503E-2
3.213551644E0,-6.391586736E-3,3.834952042E-2,3.941478580E-2
3.215551878E0,-9.054748341E-3,3.568635881E-2,4.101268202E-2
3.217552152E0,-5.858954508E-3,3.302319720E-2,4.048004746E-2
3.219552582E0,-7.456851192E-3,3.355583176E-2,4.420847446E-2
3.221553636E0,-7.989482954E-3,3.249056637E-2,4.474110901E-2
3.223553910E0,-7.989482954E-3,2.929477207E-2,4.740426689E-2
3.225554691E0,-7.456851192E-3,2.982740477E-2,4.793690145E-2
3.227555121E0,-6.924218964E-3,2.609897964E-2,5.006742850E-2
3.229555316E0,-9.054748341E-3,2.450108156E-2,5.060006306E-2
3.231556136E0,-7.456851192E-3,2.130528912E-2,5.326322466E-2
3.233556292E0,-6.924218964E-3,2.343581803E-2,5.432848632E-2
3.235555355E0,-6.391586736E-3,2.450108156E-2,5.645901710E-2
3.237554925E0,-7.989482954E-3,2.183792181E-2,5.805691332E-2
3.239555199E0,-7.456851192E-3,2.503371425E-2,5.805691332E-2
3.241554769E0,-1.012001187E-2,2.609897964E-2,5.699164793E-2
3.243554691E0,-8.522115648E-3,2.663161233E-2,6.018744037E-2
3.245554222E0,-7.456851192E-3,2.716424316E-2,5.912217870E-2
3.247552269E0,-7.456851192E-3,2.929477207E-2,6.125270575E-2
3.249550980E0,-6.924218964E-3,3.142530099E-2,6.072007492E-2
3.251550355E0,-5.858954508E-3,3.302319720E-2,6.338323653E-2
3.253550003E0,-4.261057824E-3,3.408846259E-2,6.178534031E-2
3.255549339E0,-4.793690052E-3,3.675162420E-2,6.072007492E-2
3.257548832E0,-2.130528912E-3,3.568635881E-2,6.018744037E-2
3.259548207E0,-7.456851192E-3,3.568635881E-2,5.805691332E-2
3.261546996E0,-4.793690052E-3,3.621899337E-2,5.592638254E-2
3.263546253E0,-4.261057824E-3,3.408846259E-2,5.379585549E-2
3.265545902E0,-4.261057824E-3,3.195793182E-2,5.326322466E-2
3.267545824E0,-2.130528912E-3,3.036003746E-2,5.006742850E-2
3.269546136E0,-2.663161140E-3,2.663161233E-2,4.846953228E-2
3.271546058E0,-3.195793368E-3,2.503371425E-2,4.687163606E-2
3.273545121E0,-1.597896684E-3,2.450108156E-2,4.420847446E-2
3.275544730E0,-2.130528912E-3,2.609897964E-2,4.474110901E-2
3.277543949E0,-5.326322280E-3,2.290318534E-2,4.261057824E-2
3.279543011E0,-5.326322280E-3,2.024002373E-2,4.101268202E-2
3.281542582E0,-3.728425596E-3,1.810949668E-2,3.994741663E-2
3.283542269E0,-4.261057824E-3,1.864212751E-2,3.888215125E-2
3.285540667E0,-3.728425596E-3,1.864212751E-2,3.994741663E-2
3.287538636E0,-3.195793368E-3,1.917476021E-2,3.941478580E-2
3.289536996E0,-2.130528912E-3,2.077265643E-2,3.834952042E-2
3.291535980E0,-5.326322280E-3,2.130528912E-2,3.568635881E-2
3.293535042E0,-3.728425596E-3,2.396845073E-2,3.249056637E-2
3.295535082E0,-3.195793368E-3,2.663161233E-2,3.142530099E-2
3.297534925E0,-2.663161140E-3,2.716424316E-2,2.769687586E-2
3.299534652E0,-3.195793368E-3,2.663161233E-2,2.396845073E-2
3.301534300E0,-2.130528912E-3,2.876213938E-2,2.237055451E-2
3.303533480E0,-1.065264456E-3,2.929477207E-2,1.864212751E-2
3.305532777E0,-5.326322280E-4,2.609897964E-2,1.544633508E-2
3.307532660E0,0.000000000E0,3.142530099E-2,1.278317347E-2
3.309532855E0,-5.326322280E-4,2.876213938E-2,9.054748341E-3
3.311532269E0,0.000000000E0,2.822950855E-2,6.391586736E-3
3.313532269E0,-2.663161140E-3,2.663161233E-2,1.597896684E-3
3.315531566E0,0.000000000E0,2.716424316E-2,-1.597896684E-3
3.317531175E0,-3.195793368E-3,2.130528912E-2,-2.130528912E-3
3.319530277E0,0.000000000E0,2.290318534E-2,-7.989482954E-3
3.321529339E0,-2.663161140E-3,1.757686399E-2,-1.012001187E-2
3.323529339E0,-5.326322280E-4,1.597896591E-2,-1.225054078E-2
3.325529144E0,0.000000000E0,1.278317347E-2,-1.491370238E-2
3.327528792E0,-2.663161140E-3,1.118527725E-2,-1.757686399E-2
3.329526839E0,-4.261057824E-3,1.118527725E-2,-1.970739290E-2
3.331523988E0,-2.663161140E-3,9.054748341E-3,-1.864212751E-2
3.333520003E0,-3.195793368E-3,1.171790902E-2,-2.343581803E-2
3.335518363E0,-1.597896684E-3,1.012001187E-2,-2.450108156E-2
3.337516683E0,-3.728425596E-3,1.065264456E-2,-2.556634694E-2
3.339516175E0,-4.261057824E-3,7.989482954E-3,-2.663161233E-2
3.341516019E0,-4.261057824E-3,9.587380104E-3,-2.716424316E-2
3.343515824E0,-1.597896684E-3,1.065264456E-2,-3.036003746E-2
3.345515003E0,1.065264456E-3,1.438106969E-2,-3.089267015E-2
3.347514652E0,-5.326322280E-4,1.225054078E-2,-3.462109342E-2
3.349514496E0,-2.130528912E-3,1.651159860E-2,-3.515372798E-2
3.351514496E0,-1.065264456E-3,1.810949668E-2,-3.888215125E-2
3.353514457E0,-2.130528912E-3,1.438106969E-2,-3.994741663E-2
3.355513988E0,-5.326322280E-4,1.864212751E-2,-4.420847446E-2
3.357513675E0,-5.326322280E-4,1.651159860E-2,-4.580637068E-2
3.359513519E0,0.000000000E0,1.491370238E-2,-4.793690145E-2
3.361513636E0,0.000000000E0,1.225054078E-2,-5.060006306E-2
3.363512933E0,0.000000000E0,1.171790902E-2,-5.166532472E-2
3.365512660E0,0.000000000E0,1.012001187E-2,-5.432848632E-2
3.367511957E0,-5.326322280E-4,6.924218964E-3,-5.486112088E-2
3.369511449E0,-1.597896684E-3,6.391586736E-3,-5.699164793E-2
3.371510863E0,-2.130528912E-3,4.261057824E-3,-5.539375171E-2
3.373510707E0,-1.065264456E-3,1.065264456E-3,-5.752427876E-2
3.375509808E0,-2.130528912E-3,0.000000000E0,-5.912217870E-2
3.377508949E0,5.326322280E-4,-3.728425596E-3,-5.539375171E-2
3.379508089E0,-1.065264456E-3,-4.793690052E-3,-5.539375171E-2
3.381507035E0,0.000000000E0,-2.130528912E-3,-5.645901710E-2
3.383505394E0,-2.130528912E-3,-3.728425596E-3,-5.645901710E-2
3.385504027E0,-2.130528912E-3,-6.924218964E-3,-5.486112088E-2
3.387503441E0,1.597896684E-3,-4.793690052E-3,-5.486112088E-2
3.389502855E0,5.326322280E-4,-2.663161140E-3,-5.486112088E-2
3.391502230E0,1.597896684E-3,-1.597896684E-3,-5.166532472E-2
3.393501214E0,2.130528912E-3,-1.597896684E-3,-5.219795927E-2
3.395500277E0,2.663161140E-3,-1.597896684E-3,-5.113269389E-2
3.397498949E0,1.065264456E-3,-5.326322280E-4,-5.219795927E-2
3.399497503E0,1.065264456E-3,1.065264456E-3,-5.166532472E-2
3.401495785E0,4.793690052E-3,-1.065264456E-3,-5.166532472E-2
3.403494027E0,4.261057824E-3,3.728425596E-3,-5.006742850E-2
3.405491253E0,5.326322280E-3,1.065264456E-3,-5.006742850E-2
3.407489027E0,6.924218964E-3,0.000000000E0,-4.846953228E-2
3.409487269E0,5.858954508E-3,0.000000000E0,-5.006742850E-2
3.411486058E0,6.391586736E-3,-2.663161140E-3,-4.740426689E-2
3.413484925E0,5.858954508E-3,-3.195793368E-3,-4.740426689E-2
3.415483792E0,5.326322280E-3,-5.858954508E-3,-4.687163606E-2
3.417482777E0,5.858954508E-3,-1.012001187E-2,-4.314320907E-2
3.419481996E0,5.858954508E-3,-1.171790902E-2,-4.420847446E-2
3.421481683E0,6.924218964E-3,-1.384843793E-2,-4.101268202E-2
3.423481214E0,7.456851192E-3,-1.491370238E-2,-3.941478580E-2
3.425480941E0,7.456851192E-3,-1.704423130E-2,-3.515372798E-2
3.427480316E0,5.858954508E-3,-1.970739290E-2,-3.249056637E-2
3.429479925E0,6.924218964E-3,-1.970739290E-2,-3.036003746E-2
3.431479886E0,6.391586736E-3,-1.864212751E-2,-2.822950855E-2
3.433480121E0,1.065264456E-2,-1.970739290E-2,-2.343581803E-2
3.435479496E0,1.012001187E-2,-2.237055451E-2,-2.024002373E-2
3.437478324E0,1.012001187E-2,-1.970739290E-2,-1.757686399E-2
3.439478128E0,1.012001187E-2,-1.970739290E-2,-1.065264456E-2
3.441477816E0,1.171790902E-2,-1.810949668E-2,-5.858954508E-3
3.443477464E0,1.171790902E-2,-1.544633508E-2,-5.326322280E-3
3.445476800E0,1.171790902E-2,-1.384843793E-2,-2.130528912E-3
3.447476097E0,1.278317347E-2,-1.331580617E-2,-1.065264456E-3
3.449475941E0,1.225054078E-2,-9.587380104E-3,1.065264456E-3
3.451474730E0,1.384843793E-2,-9.054748341E-3,4.261057824E-3
3.453472347E0,1.331580617E-2,-9.054748341E-3,5.858954508E-3
3.455470355E0,1.278317347E-2,-9.587380104E-3,5.326322280E-3
3.457469417E0,1.438106969E-2,-1.225054078E-2,8.522115648E-3
3.459468480E0,1.491370238E-2,-1.331580617E-2,1.171790902E-2
3.461468324E0,1.384843793E-2,-1.491370238E-2,1.384843793E-2
3.463468011E0,1.491370238E-2,-1.704423130E-2,1.651159860E-2
3.465467777E0,1.491370238E-2,-2.130528912E-2,1.704423130E-2
3.467466566E0,1.597896591E-2,-2.077265643E-2,2.290318534E-2
3.469465746E0,1.171790902E-2,-2.396845073E-2,2.343581803E-2
3.471465746E0,1.597896591E-2,-2.769687586E-2,2.609897964E-2
3.473465589E0,1.438106969E-2,-2.929477207E-2,2.982740477E-2
3.475465003E0,1.384843793E-2,-3.142530099E-2,3.355583176E-2
3.477464222E0,1.438106969E-2,-3.142530099E-2,3.728425503E-2
3.479462816E0,1.544633508E-2,-3.249056637E-2,4.048004746E-2
3.481461175E0,1.704423130E-2,-3.355583176E-2,4.261057824E-2
3.483460394E0,1.438106969E-2,-3.142530099E-2,4.633900523E-2
3.485460707E0,1.544633508E-2,-2.876213938E-2,4.846953228E-2
3.487461136E0,1.651159860E-2,-2.876213938E-2,5.379585549E-2
3.489460941E0,1.491370238E-2,-2.716424316E-2,5.539375171E-2
3.491461214E0,1.651159860E-2,-2.450108156E-2,5.645901710E-2
3.493461371E0,1.544633508E-2,-2.343581803E-2,6.018744037E-2
3.495460941E0,1.757686399E-2,-2.130528912E-2,6.178534031E-2
3.497460316E0,1.704423130E-2,-1.864212751E-2,6.231797114E-2
3.499460511E0,1.810949668E-2,-1.917476021E-2,6.338323653E-2
3.501459808E0,1.810949668E-2,-2.024002373E-2,6.391586363E-2
3.503459300E0,1.597896591E-2,-1.757686399E-2,6.604639441E-2
3.505458949E0,1.597896591E-2,-1.810949668E-2,6.657902896E-2
3.507457035E0,1.651159860E-2,-2.077265643E-2,6.657902896E-2
3.509455199E0,1.704423130E-2,-2.237055451E-2,6.551376730E-2
3.511453558E0,1.491370238E-2,-2.503371425E-2,6.657902896E-2
3.513452230E0,1.597896591E-2,-2.769687586E-2,6.711166352E-2
3.515451839E0,1.651159860E-2,-2.929477207E-2,6.870955974E-2
3.517451605E0,1.544633508E-2,-2.822950855E-2,6.924218684E-2
3.519451605E0,1.384843793E-2,-3.142530099E-2,7.137271762E-2
3.521451214E0,1.544633508E-2,-3.675162420E-2,7.030745596E-2
3.523451449E0,1.384843793E-2,-3.834952042E-2,7.243798673E-2
3.525451175E0,1.278317347E-2,-3.888215125E-2,7.350324839E-2
3.527451371E0,1.384843793E-2,-3.728425503E-2,7.350324839E-2
3.529451332E0,1.331580617E-2,-3.888215125E-2,7.456851006E-2
3.531451722E0,1.384843793E-2,-3.515372798E-2,7.403588295E-2
3.533451214E0,1.544633508E-2,-3.781688958E-2,7.510114461E-2
3.535452152E0,1.331580617E-2,-3.355583176E-2,7.563377917E-2
3.537452464E0,1.278317347E-2,-3.195793182E-2,7.243798673E-2
3.539452777E0,1.384843793E-2,-3.089267015E-2,7.350324839E-2
3.541453675E0,1.278317347E-2,-2.769687586E-2,7.403588295E-2
3.543454496E0,1.384843793E-2,-2.450108156E-2,7.137271762E-2
3.545454261E0,1.384843793E-2,-2.396845073E-2,7.084008306E-2
3.547455160E0,1.438106969E-2,-2.290318534E-2,6.924218684E-2
3.549455042E0,1.384843793E-2,-1.970739290E-2,6.444849819E-2
3.551454925E0,1.438106969E-2,-2.024002373E-2,6.498113275E-2
3.553455667E0,1.544633508E-2,-2.237055451E-2,6.125270575E-2
3.555456175E0,1.438106969E-2,-2.183792181E-2,6.018744037E-2
3.557456605E0,1.384843793E-2,-2.450108156E-2,5.805691332E-2
3.559456449E0,1.438106969E-2,-2.769687586E-2,5.539375171E-2
3.561456566E0,1.331580617E-2,-2.769687586E-2,5.432848632E-2
3.563456761E0,1.331580617E-2,-2.769687586E-2,5.273059011E-2
3.565457269E0,1.118527725E-2,-3.249056637E-2,5.006742850E-2
3.567457855E0,1.225054078E-2,-3.515372798E-2,4.793690145E-2
3.569458050E0,1.278317347E-2,-3.568635881E-2,4.527373984E-2
3.571458402E0,9.587380104E-3,-3.781688958E-2,4.474110901E-2
3.573458910E0,7.456851192E-3,-3.834952042E-2,4.207794741E-2
3.575459613E0,9.587380104E-3,-3.888215125E-2,4.101268202E-2
3.577459613E0,1.118527725E-2,-4.207794741E-2,3.675162420E-2
3.579460355E0,9.054748341E-3,-3.888215125E-2,3.408846259E-2
3.581460863E0,9.054748341E-3,-3.621899337E-2,3.249056637E-2
3.583461488E0,7.989482954E-3,-3.462109342E-2,3.089267015E-2
3.585461449E0,7.989482954E-3,-3.195793182E-2,2.876213938E-2
3.587461058E0,9.054748341E-3,-2.929477207E-2,2.503371425E-2
3.589460121E0,9.054748341E-3,-2.876213938E-2,2.183792181E-2
3.591459808E0,9.587380104E-3,-2.609897964E-2,1.704423130E-2
3.593459886E0,1.171790902E-2,-2.343581803E-2,1.597896591E-2
3.595459730E0,1.171790902E-2,-2.290318534E-2,1.225054078E-2
3.597459496E0,9.587380104E-3,-2.077265643E-2,9.587380104E-3
3.599459417E0,9.054748341E-3,-1.917476021E-2,5.326322280E-3
3.601459027E0,1.012001187E-2,-1.810949668E-2,1.597896684E-3
3.603459066E0,1.012001187E-2,-1.970739290E-2,-1.597896684E-3
3.605458519E0,1.065264456E-2,-2.024002373E-2,-6.391586736E-3
3.607457621E0,7.456851192E-3,-2.183792181E-2,-1.012001187E-2
3.609457738E0,1.065264456E-2,-2.290318534E-2,-1.278317347E-2
3.611458753E0,8.522115648E-3,-2.343581803E-2,-1.597896591E-2
3.613459730E0,1.012001187E-2,-2.822950855E-2,-1.864212751E-2
3.615460433E0,8.522115648E-3,-3.036003746E-2,-1.970739290E-2
3.617460277E0,7.989482954E-3,-3.195793182E-2,-2.396845073E-2
3.619460121E0,5.858954508E-3,-3.249056637E-2,-2.663161233E-2
3.621459535E0,6.924218964E-3,-3.408846259E-2,-2.769687586E-2
3.623458480E0,7.456851192E-3,-3.195793182E-2,-2.982740477E-2
3.625456878E0,8.522115648E-3,-3.355583176E-2,-3.142530099E-2
3.627456058E0,9.054748341E-3,-3.249056637E-2,-3.249056637E-2
3.629455667E0,8.522115648E-3,-3.142530099E-2,-3.568635881E-2
3.631454964E0,1.012001187E-2,-2.822950855E-2,-3.834952042E-2
3.633453792E0,7.456851192E-3,-2.556634694E-2,-4.101268202E-2
3.635453207E0,6.924218964E-3,-2.077265643E-2,-4.261057824E-2
3.637452660E0,6.391586736E-3,-2.077265643E-2,-4.474110901E-2
3.639452582E0,7.989482954E-3,-1.810949668E-2,-4.740426689E-2
3.641452464E0,6.391586736E-3,-1.757686399E-2,-5.006742850E-2
3.643450316E0,9.054748341E-3,-1.544633508E-2,-5.219795927E-2
3.645449378E0,7.989482954E-3,-1.384843793E-2,-5.645901710E-2
3.647449417E0,9.054748341E-3,-1.225054078E-2,-5.699164793E-2
3.649449261E0,7.456851192E-3,-8.522115648E-3,-5.645901710E-2
3.651448050E0,8.522115648E-3,-1.438106969E-2,-5.858954415E-2
3.653447152E0,7.456851192E-3,-1.384843793E-2,-5.965480953E-2
3.655446996E0,5.858954508E-3,-1.438106969E-2,-6.231797114E-2
3.657447464E0,7.456851192E-3,-1.544633508E-2,-6.391586363E-2
3.659446839E0,4.261057824E-3,-1.757686399E-2,-6.178534031E-2
3.661446136E0,6.924218964E-3,-1.810949668E-2,-6.178534031E-2
3.663445277E0,6.924218964E-3,-2.183792181E-2,-6.178534031E-2
3.665444144E0,4.793690052E-3,-2.290318534E-2,-6.231797114E-2
3.667443480E0,6.391586736E-3,-2.503371425E-2,-6.285060197E-2
3.669442738E0,4.261057824E-3,-2.396845073E-2,-6.125270575E-2
3.671441605E0,2.130528912E-3,-2.343581803E-2,-6.285060197E-2
3.673440589E0,2.130528912E-3,-2.183792181E-2,-6.072007492E-2
3.675438910E0,4.261057824E-3,-1.970739290E-2,-5.965480953E-2
3.677437308E0,3.195793368E-3,-1.704423130E-2,-6.072007492E-2
3.679435941E0,3.728425596E-3,-1.651159860E-2,-5.912217870E-2
3.681434769E0,4.793690052E-3,-1.491370238E-2,-5.965480953E-2
3.683433949E0,3.195793368E-3,-1.225054078E-2,-6.018744037E-2
3.685433128E0,4.793690052E-3,-9.054748341E-3,-5.965480953E-2
3.687432347E0,3.195793368E-3,-7.456851192E-3,-5.805691332E-2
3.689431683E0,4.261057824E-3,-5.326322280E-3,-5.858954415E-2
3.691430941E0,4.793690052E-3,-2.663161140E-3,-5.539375171E-2
3.693430628E0,2.663161140E-3,5.326322280E-4,-5.486112088E-2
3.695429808E0,3.195793368E-3,-5.326322280E-4,-5.379585549E-2
3.697429105E0,2.130528912E-3,1.065264456E-3,-5.273059011E-2
3.699427582E0,2.130528912E-3,-1.065264456E-3,-5.006742850E-2
3.701426332E0,3.728425596E-3,5.326322280E-4,-4.846953228E-2
3.703424808E0,3.195793368E-3,-1.065264456E-3,-4.527373984E-2
3.705422347E0,1.065264456E-3,-3.195793368E-3,-4.580637068E-2
3.707420394E0,2.130528912E-3,-2.663161140E-3,-4.048004746E-2
3.709419261E0,-1.065264456E-3,-3.195793368E-3,-3.888215125E-2
3.711417699E0,1.065264456E-3,-5.858954508E-3,-3.675162420E-2
3.713415707E0,-2.663161140E-3,-5.326322280E-3,-3.249056637E-2
3.715413714E0,5.326322280E-4,-4.793690052E-3,-2.929477207E-2
3.717412542E0,-1.597896684E-3,-6.391586736E-3,-2.822950855E-2
3.719410863E0,-1.597896684E-3,-4.793690052E-3,-2.503371425E-2
3.721409613E0,-2.130528912E-3,-3.728425596E-3,-2.183792181E-2
3.723408792E0,-2.130528912E-3,-4.261057824E-3,-1.810949668E-2
3.725407582E0,-3.195793368E-3,-2.130528912E-3,-1.651159860E-2
3.727406683E0,-3.195793368E-3,0.000000000E0,-1.544633508E-2
3.729406253E0,-4.261057824E-3,2.663161140E-3,-1.225054078E-2
3.731405980E0,-2.130528912E-3,3.728425596E-3,-1.118527725E-2
3.733405628E0,-2.663161140E-3,6.924218964E-3,-7.989482954E-3
3.735404613E0,-3.195793368E-3,1.065264456E-2,-5.858954508E-3
3.737404066E0,-3.195793368E-3,1.225054078E-2,-3.195793368E-3
3.739403402E0,-2.663161140E-3,1.118527725E-2,0.000000000E0
3.741403011E0,-4.261057824E-3,1.331580617E-2,1.597896684E-3
3.743402230E0,-2.663161140E-3,1.544633508E-2,5.326322280E-3
3.745401253E0,-4.793690052E-3,1.491370238E-2,9.054748341E-3
3.747400003E0,-5.858954508E-3,1.544633508E-2,1.171790902E-2
3.749399222E0,-4.261057824E-3,1.491370238E-2,1.757686399E-2
3.751398402E0,-5.858954508E-3,1.278317347E-2,1.757686399E-2
3.753397074E0,-5.326322280E-3,1.118527725E-2,2.343581803E-2
3.755395589E0,-4.793690052E-3,1.118527725E-2,2.663161233E-2
3.757394730E0,-6.924218964E-3,1.012001187E-2,2.929477207E-2
3.759394105E0,-7.456851192E-3,5.858954508E-3,3.142530099E-2
3.761393480E0,-7.456851192E-3,9.054748341E-3,3.302319720E-2
3.763392777E0,-9.054748341E-3,8.522115648E-3,3.941478580E-2
3.765392035E0,-6.924218964E-3,7.456851192E-3,4.101268202E-2
3.767391214E0,-6.924218964E-3,1.012001187E-2,4.420847446E-2
3.769390433E0,-7.989482954E-3,9.587380104E-3,4.527373984E-2
3.771390433E0,-7.989482954E-3,1.065264456E-2,4.740426689E-2
3.773390316E0,-6.924218964E-3,1.278317347E-2,4.793690145E-2
3.775390082E0,-8.522115648E-3,1.491370238E-2,4.953479767E-2
3.777389730E0,-8.522115648E-3,1.810949668E-2,4.900216311E-2
3.779388441E0,-6.391586736E-3,2.130528912E-2,4.793690145E-2
3.781387113E0,-7.989482954E-3,2.130528912E-2,5.379585549E-2
3.783386214E0,-9.587380104E-3,2.343581803E-2,5.486112088E-2
3.785384691E0,-7.456851192E-3,2.237055451E-2,5.486112088E-2
3.787383832E0,-5.858954508E-3,2.450108156E-2,5.699164793E-2
3.789382777E0,-7.989482954E-3,2.716424316E-2,6.072007492E-2
3.791381644E0,-9.054748341E-3,2.609897964E-2,6.072007492E-2
3.793381527E0,-9.054748341E-3,2.556634694E-2,6.231797114E-2
3.795381996E0,-9.587380104E-3,2.769687586E-2,6.391586363E-2
3.797381722E0,-7.456851192E-3,2.716424316E-2,6.657902896E-2
3.799381488E0,-7.989482954E-3,2.450108156E-2,6.817692518E-2
3.801380707E0,-8.522115648E-3,2.077265643E-2,6.870955974E-2
3.803380199E0,-7.989482954E-3,2.024002373E-2,7.243798673E-2
3.805379886E0,-6.391586736E-3,1.864212751E-2,7.190535218E-2
3.807379691E0,-7.989482954E-3,1.917476021E-2,7.137271762E-2
3.809380003E0,-7.456851192E-3,1.810949668E-2,7.243798673E-2
3.811380707E0,-9.054748341E-3,1.704423130E-2,7.297061384E-2
3.813380785E0,-7.989482954E-3,1.864212751E-2,7.030745596E-2
3.815380863E0,-9.054748341E-3,1.917476021E-2,6.870955974E-2
3.817380511E0,-6.924218964E-3,1.864212751E-2,6.924218684E-2
3.819379964E0,-9.054748341E-3,2.130528912E-2,6.711166352E-2
3.821379964E0,-7.456851192E-3,2.343581803E-2,6.711166352E-2
3.823379457E0,-6.924218964E-3,2.609897964E-2,6.498113275E-2
3.825378988E0,-6.924218964E-3,2.769687586E-2,6.231797114E-2
3.827378675E0,-7.989482954E-3,2.929477207E-2,6.018744037E-2
3.829378363E0,-8.522115648E-3,3.142530099E-2,5.912217870E-2
3.831377777E0,-4.793690052E-3,3.249056637E-2,5.645901710E-2
3.833377113E0,-6.391586736E-3,3.462109342E-2,5.592638254E-2
3.835376878E0,-5.858954508E-3,3.408846259E-2,5.486112088E-2
3.837376253E0,-9.054748341E-3,3.302319720E-2,5.379585549E-2
3.839376019E0,-6.391586736E-3,3.089267015E-2,5.113269389E-2
3.841375355E0,-7.456851192E-3,3.089267015E-2,4.900216311E-2
3.843375082E0,-5.326322280E-3,3.089267015E-2,4.953479767E-2
3.845375746E0,-8.522115648E-3,3.249056637E-2,4.900216311E-2
3.847375980E0,-6.391586736E-3,2.876213938E-2,4.740426689E-2
3.849376058E0,-6.391586736E-3,2.609897964E-2,4.687163606E-2
3.851376058E0,-7.989482954E-3,2.609897964E-2,4.580637068E-2
3.853375785E0,-5.326322280E-3,2.503371425E-2,4.474110901E-2
3.855375199E0,-8.522115648E-3,2.237055451E-2,4.101268202E-2
3.857375003E0,-5.858954508E-3,2.237055451E-2,3.941478580E-2
3.859374222E0,-8.522115648E-3,2.343581803E-2,3.781688958E-2
3.861372972E0,-7.989482954E-3,2.343581803E-2,3.462109342E-2
3.863371292E0,-6.391586736E-3,2.450108156E-2,3.355583176E-2
3.865370121E0,-8.522115648E-3,2.556634694E-2,3.036003746E-2
3.867368949E0,-7.456851192E-3,2.822950855E-2,2.503371425E-2
3.869367699E0,-8.522115648E-3,2.769687586E-2,2.077265643E-2
3.871367308E0,-9.587380104E-3,2.982740477E-2,1.544633508E-2
3.873366605E0,-5.858954508E-3,2.929477207E-2,1.384843793E-2
3.875365863E0,-7.989482954E-3,3.249056637E-2,7.456851192E-3
3.877365355E0,-5.858954508E-3,3.302319720E-2,2.130528912E-3
3.879364964E0,-6.391586736E-3,3.355583176E-2,-1.065264456E-3
3.881364457E0,-5.326322280E-3,3.355583176E-2,-4.793690052E-3
3.883363753E0,-6.391586736E-3,3.462109342E-2,-5.326322280E-3
3.885362738E0,-5.326322280E-3,3.408846259E-2,-1.171790902E-2
3.887362152E0,-6.924218964E-3,3.515372798E-2,-1.225054078E-2
3.889361488E0,-6.391586736E-3,3.302319720E-2,-1.491370238E-2
3.891359808E0,-6.924218964E-3,3.355583176E-2,-1.757686399E-2
3.893358363E0,-6.391586736E-3,3.249056637E-2,-2.130528912E-2
3.895357230E0,-6.924218964E-3,3.036003746E-2,-2.077265643E-2
3.897356644E0,-6.391586736E-3,2.716424316E-2,-2.609897964E-2
3.899355941E0,-6.924218964E-3,2.769687586E-2,-2.609897964E-2
3.901355707E0,-9.054748341E-3,2.503371425E-2,-2.876213938E-2
3.903355199E0,-1.012001187E-2,2.450108156E-2,-3.089267015E-2
3.905354027E0,-7.989482954E-3,2.450108156E-2,-3.142530099E-2
3.907353324E0,-1.065264456E-2,2.556634694E-2,-3.568635881E-2
3.909352503E0,-9.054748341E-3,2.450108156E-2,-3.728425503E-2
3.911352855E0,-9.587380104E-3,2.343581803E-2,-3.888215125E-2
3.913353597E0,-1.012001187E-2,2.396845073E-2,-4.261057824E-2
3.915353480E0,-7.456851192E-3,2.609897964E-2,-4.580637068E-2
3.917353089E0,-7.989482954E-3,2.609897964E-2,-4.793690145E-2
3.919352347E0,-9.587380104E-3,2.876213938E-2,-5.219795927E-2
3.921350316E0,-8.522115648E-3,2.982740477E-2,-5.486112088E-2
3.923347425E0,-8.522115648E-3,2.982740477E-2,-5.752427876E-2
3.925345082E0,-7.456851192E-3,3.195793182E-2,-6.178534031E-2
3.927344105E0,-9.054748341E-3,3.036003746E-2,-6.285060197E-2
3.929342855E0,-1.012001187E-2,3.302319720E-2,-6.551376730E-2
3.931341839E0,-6.391586736E-3,2.982740477E-2,-6.817692518E-2
3.933341839E0,-7.989482954E-3,3.036003746E-2,-6.870955974E-2
3.935341644E0,-6.924218964E-3,2.876213938E-2,-6.924218684E-2
3.937341332E0,-7.989482954E-3,2.929477207E-2,-7.030745596E-2
3.939341332E0,-7.456851192E-3,2.876213938E-2,-6.977482140E-2
3.941341058E0,-7.989482954E-3,2.982740477E-2,-6.764429063E-2
3.943340667E0,-7.989482954E-3,2.450108156E-2,-6.817692518E-2
3.945339535E0,-8.522115648E-3,2.290318534E-2,-6.870955974E-2
3.947338128E0,-8.522115648E-3,2.396845073E-2,-6.977482140E-2
3.949336527E0,-6.391586736E-3,1.970739290E-2,-6.870955974E-2
3.951334378E0,-7.989482954E-3,1.970739290E-2,-7.084008306E-2
3.953331605E0,-1.118527725E-2,1.597896591E-2,-6.924218684E-2
3.955329574E0,-8.522115648E-3,1.757686399E-2,-6.764429063E-2
3.957328792E0,-1.012001187E-2,1.704423130E-2,-6.711166352E-2
3.959327777E0,-7.989482954E-3,1.810949668E-2,-6.657902896E-2
