"Time (s)","Gyroscope x (rad/s)","Gyroscope y (rad/s)","Gyroscope z (rad/s)"
1.293932270E-1,-1.374999993E-4,-1.649999991E-3,-1.003750041E-2
1.318938420E-1,-1.374999993E-4,-1.649999991E-3,-1.113750041E-2
1.343944610E-1,-1.374999993E-4,-1.649999991E-3,-1.113750041E-2
1.368950760E-1,-1.099999994E-3,5.499999970E-4,-1.223750040E-2
1.393956920E-1,2.062499989E-3,5.499999970E-4,-1.223750040E-2
1.418963080E-1,2.062499989E-3,5.499999970E-4,-1.333750039E-2
1.443969430E-1,-1.374999993E-4,1.649999991E-3,-1.333750039E-2
1.468975590E-1,9.624999948E-4,5.499999970E-4,-1.223750040E-2
1.493981740E-1,2.062499989E-3,5.499999970E-4,-1.113750041E-2
1.518987890E-1,9.624999948E-4,5.499999970E-4,-9.074999951E-3
1.543993850E-1,2.062499989E-3,-5.499999970E-4,-6.874999963E-3
1.569000000E-1,-1.374999993E-4,-5.499999970E-4,-5.774999969E-3
1.594006150E-1,-1.374999993E-4,-5.499999970E-4,-3.712499980E-3
1.619012300E-1,-1.099999994E-3,5.499999970E-4,-1.649999991E-3
1.644018260E-1,9.624999948E-4,5.499999970E-4,1.649999991E-3
1.669024420E-1,-1.374999993E-4,5.499999970E-4,3.712499980E-3
1.694030580E-1,-1.374999993E-4,5.499999970E-4,3.712499980E-3
1.719036740E-1,-1.099999994E-3,-5.499999970E-4,6.874999963E-3
1.744042900E-1,9.624999948E-4,-5.499999970E-4,7.974999957E-3
1.769049100E-1,9.624999948E-4,5.499999970E-4,9.074999951E-3
1.794055250E-1,9.624999948E-4,5.499999970E-4,9.074999951E-3
1.819061400E-1,-1.099999994E-3,-1.649999991E-3,9.074999951E-3
1.844067550E-1,-1.099999994E-3,-5.499999970E-4,1.223750040E-2
1.869073650E-1,-1.374999993E-4,-5.499999970E-4,1.333750039E-2
1.894079050E-1,-1.374999993E-4,5.499999970E-4,1.223750040E-2
1.919085960E-1,-1.374999993E-4,5.499999970E-4,1.649999991E-2
1.944091360E-1,9.624999948E-4,1.649999991E-3,1.539999992E-2
1.969098130E-1,-1.374999993E-4,-5.499999970E-4,1.649999991E-2
1.994104300E-1,-1.374999993E-4,5.499999970E-4,1.759999990E-2
2.019110450E-1,-1.374999993E-4,5.499999970E-4,1.759999990E-2
2.044115840E-1,-1.374999993E-4,5.499999970E-4,1.966249943E-2
2.069121870E-1,2.062499989E-3,1.649999991E-3,2.186249942E-2
2.094128030E-1,9.624999948E-4,5.499999970E-4,2.076249942E-2
2.119134180E-1,-1.374999993E-4,5.499999970E-4,2.282499894E-2
2.144140330E-1,2.062499989E-3,1.649999991E-3,2.708750032E-2
2.169146640E-1,-1.374999993E-4,5.499999970E-4,2.502499893E-2
2.194153560E-1,-1.374999993E-4,-1.649999991E-3,2.392499894E-2
2.219158960E-1,-1.099999994E-3,-5.499999970E-4,2.392499894E-2
2.244165870E-1,-1.374999993E-4,-5.499999970E-4,2.612499893E-2
2.269171270E-1,-1.374999993E-4,-1.649999991E-3,2.392499894E-2
2.294178180E-1,-1.099999994E-3,5.499999970E-4,2.392499894E-2
2.319183580E-1,-1.374999993E-4,-5.499999970E-4,2.186249942E-2
2.344190480E-1,-1.374999993E-4,5.499999970E-4,1.966249943E-2
2.369196030E-1,9.624999948E-4,1.649999991E-3,1.966249943E-2
2.394202930E-1,9.624999948E-4,5.499999970E-4,1.759999990E-2
2.419208340E-1,-1.374999993E-4,5.499999970E-4,1.869999990E-2
2.444215240E-1,-1.099999994E-3,5.499999970E-4,1.759999990E-2
2.469220580E-1,-1.374999993E-4,5.499999970E-4,1.759999990E-2
2.494226720E-1,-1.099999994E-3,-5.499999970E-4,1.966249943E-2
2.519232870E-1,2.062499989E-3,-5.499999970E-4,1.966249943E-2
2.544239030E-1,9.624999948E-4,1.649999991E-3,2.076249942E-2
2.569245180E-1,-1.374999993E-4,-5.499999970E-4,2.076249942E-2
2.594252150E-1,-1.374999993E-4,5.499999970E-4,1.966249943E-2
2.619257560E-1,-1.374999993E-4,5.499999970E-4,1.966249943E-2
2.644263690E-1,9.624999948E-4,-5.499999970E-4,1.966249943E-2
2.669269850E-1,-1.099999994E-3,-5.499999970E-4,2.186249942E-2
2.694275910E-1,9.624999948E-4,-5.499999970E-4,1.869999990E-2
2.719282060E-1,-1.374999993E-4,5.499999970E-4,1.869999990E-2
2.744288220E-1,-1.374999993E-4,-1.649999991E-3,1.759999990E-2
2.769294380E-1,9.624999948E-4,5.499999970E-4,1.759999990E-2
2.794300540E-1,-1.374999993E-4,-5.499999970E-4,1.443750039E-2
2.819306700E-1,-1.374999993E-4,-1.649999991E-3,1.333750039E-2
2.844312850E-1,-1.374999993E-4,5.499999970E-4,1.443750039E-2
2.869319000E-1,9.624999948E-4,-5.499999970E-4,1.223750040E-2
2.894325000E-1,-1.374999993E-4,5.499999970E-4,1.113750041E-2
2.919331150E-1,-1.099999994E-3,1.649999991E-3,9.074999951E-3
2.944337300E-1,-1.099999994E-3,-5.499999970E-4,9.074999951E-3
2.969343450E-1,-1.374999993E-4,5.499999970E-4,6.874999963E-3
2.994349470E-1,-1.374999993E-4,5.499999970E-4,7.974999957E-3
3.019355630E-1,2.062499989E-3,5.499999970E-4,7.974999957E-3
3.044361790E-1,9.624999948E-4,2.612499986E-3,5.912499968E-3
3.069367950E-1,9.624999948E-4,5.499999970E-4,7.974999957E-3
3.094374100E-1,2.062499989E-3,-1.649999991E-3,7.974999957E-3
3.119380250E-1,9.624999948E-4,5.499999970E-4,5.912499968E-3
3.144386400E-1,9.624999948E-4,5.499999970E-4,5.912499968E-3
3.169392550E-1,-1.374999993E-4,-5.499999970E-4,4.812499974E-3
3.194398600E-1,9.624999948E-4,-5.499999970E-4,2.612499986E-3
3.219404750E-1,-1.374999993E-4,5.499999970E-4,2.612499986E-3
3.244410910E-1,9.624999948E-4,5.499999970E-4,1.649999991E-3
3.269417070E-1,-1.374999993E-4,5.499999970E-4,5.499999970E-4
3.294423280E-1,-1.374999993E-4,5.499999970E-4,-2.612499986E-3
3.319429440E-1,2.062499989E-3,-5.499999970E-4,-4.812499974E-3
3.344435590E-1,2.062499989E-3,1.649999991E-3,-4.812499974E-3
3.369441740E-1,9.624999948E-4,-5.499999970E-4,-5.774999969E-3
3.394447890E-1,9.624999948E-4,-5.499999970E-4,-5.774999969E-3
3.419454180E-1,-2.199999988E-3,-5.499999970E-4,-6.874999963E-3
3.444460330E-1,9.624999948E-4,-5.499999970E-4,-7.974999957E-3
3.469466480E-1,2.062499989E-3,5.499999970E-4,-5.774999969E-3
3.494472630E-1,3.162499983E-3,1.649999991E-3,-5.774999969E-3
3.519478690E-1,9.624999948E-4,5.499999970E-4,-5.774999969E-3
3.544484850E-1,-1.374999993E-4,-5.499999970E-4,-6.874999963E-3
3.569491010E-1,-1.374999993E-4,5.499999970E-4,-5.774999969E-3
3.594497170E-1,2.062499989E-3,-5.499999970E-4,-4.812499974E-3
3.619503470E-1,-1.374999993E-4,-5.499999970E-4,-5.774999969E-3
3.644509620E-1,-1.374999993E-4,-1.649999991E-3,-4.812499974E-3
3.669515770E-1,9.624999948E-4,-1.649999991E-3,-4.812499974E-3
3.694521920E-1,-1.374999993E-4,-5.499999970E-4,-6.874999963E-3
3.719528020E-1,2.062499989E-3,-1.649999991E-3,-6.874999963E-3
3.744534170E-1,-1.374999993E-4,5.499999970E-4,-4.812499974E-3
3.769540330E-1,-1.374999993E-4,-5.499999970E-4,-6.874999963E-3
3.794546490E-1,-1.374999993E-4,-1.649999991E-3,-6.874999963E-3
3.819552600E-1,-1.374999993E-4,-5.499999970E-4,-5.774999969E-3
3.844558760E-1,2.062499989E-3,5.499999970E-4,-5.774999969E-3
3.869564910E-1,-1.099999994E-3,-5.499999970E-4,-4.812499974E-3
3.894571060E-1,9.624999948E-4,-1.649999991E-3,-4.812499974E-3
3.919577210E-1,-1.374999993E-4,5.499999970E-4,-4.812499974E-3
3.944583260E-1,-1.099999994E-3,1.649999991E-3,-2.612499986E-3
3.969589410E-1,2.062499989E-3,5.499999970E-4,-2.612499986E-3
3.994595560E-1,9.624999948E-4,5.499999970E-4,-5.499999970E-4
4.019601720E-1,2.062499989E-3,-5.499999970E-4,-5.499999970E-4
4.044608030E-1,9.624999948E-4,5.499999970E-4,1.649999991E-3
4.069614190E-1,-1.374999993E-4,5.499999970E-4,2.612499986E-3
4.094620350E-1,9.624999948E-4,5.499999970E-4,1.649999991E-3
4.119626500E-1,9.624999948E-4,5.499999970E-4,2.612499986E-3
4.144632700E-1,9.624999948E-4,-5.499999970E-4,2.612499986E-3
4.169638850E-1,9.624999948E-4,-5.499999970E-4,2.612499986E-3
4.194645000E-1,-1.374999993E-4,-5.499999970E-4,1.649999991E-3
4.219651150E-1,-1.099999994E-3,-1.649999991E-3,3.712499980E-3
4.244657110E-1,9.624999948E-4,-5.499999970E-4,1.649999991E-3
4.269663270E-1,2.062499989E-3,-1.649999991E-3,1.649999991E-3
4.294669430E-1,-1.374999993E-4,-5.499999970E-4,1.649999991E-3
4.319675590E-1,-1.099999994E-3,5.499999970E-4,1.649999991E-3
4.344681700E-1,-1.099999994E-3,5.499999970E-4,1.649999991E-3
4.369687850E-1,-1.374999993E-4,5.499999970E-4,5.499999970E-4
4.394694000E-1,-1.374999993E-4,5.499999970E-4,-5.499999970E-4
4.419697850E-1,-1.374999993E-4,-5.499999970E-4,-1.649999991E-3
4.444703840E-1,2.062499989E-3,1.649999991E-3,-5.499999970E-4
4.469710000E-1,-1.374999993E-4,1.649999991E-3,-2.612499986E-3
4.494716150E-1,-1.374999993E-4,-5.499999970E-4,-2.612499986E-3
4.519722310E-1,2.062499989E-3,5.499999970E-4,-2.612499986E-3
4.544728460E-1,9.624999948E-4,5.499999970E-4,-3.712499980E-3
4.569734460E-1,9.624999948E-4,-1.649999991E-3,-4.812499974E-3
4.594740620E-1,9.624999948E-4,5.499999970E-4,-5.774999969E-3
4.619746780E-1,-1.374999993E-4,1.649999991E-3,-7.974999957E-3
4.644752940E-1,-1.099999994E-3,-5.499999970E-4,-9.074999951E-3
4.669759250E-1,-1.374999993E-4,-5.499999970E-4,-1.223750040E-2
4.694767690E-1,9.624999948E-4,-5.499999970E-4,-1.333750039E-2
4.719771560E-1,-1.374999993E-4,-1.649999991E-3,-1.539999992E-2
4.744780000E-1,-1.374999993E-4,1.649999991E-3,-1.649999991E-2
4.769783870E-1,-1.374999993E-4,5.499999970E-4,-1.649999991E-2
4.794792310E-1,9.624999948E-4,-5.499999970E-4,-1.539999992E-2
4.819796170E-1,9.624999948E-4,1.649999991E-3,-1.759999990E-2
4.844804620E-1,9.624999948E-4,-5.499999970E-4,-1.649999991E-2
4.869808480E-1,-1.374999993E-4,5.499999970E-4,-1.759999990E-2
4.894816920E-1,9.624999948E-4,-5.499999970E-4,-1.649999991E-2
4.919820790E-1,2.062499989E-3,-5.499999970E-4,-1.539999992E-2
4.944829230E-1,9.624999948E-4,5.499999970E-4,-1.539999992E-2
4.969833050E-1,-1.374999993E-4,5.499999970E-4,-1.429999992E-2
4.994841490E-1,9.624999948E-4,5.499999970E-4,-1.429999992E-2
5.019845350E-1,-1.374999993E-4,-5.499999970E-4,-1.223750040E-2
5.044851490E-1,-1.099999994E-3,1.649999991E-3,-1.113750041E-2
5.069857640E-1,9.624999948E-4,-5.499999970E-4,-1.113750041E-2
5.094863800E-1,9.624999948E-4,-1.649999991E-3,-7.974999957E-3
5.119869950E-1,9.624999948E-4,-5.499999970E-4,-1.003750041E-2
5.144876100E-1,-1.374999993E-4,-5.499999970E-4,-7.974999957E-3
5.169882260E-1,2.062499989E-3,-5.499999970E-4,-7.974999957E-3
5.194888550E-1,-1.374999993E-4,5.499999970E-4,-6.874999963E-3
5.219894710E-1,-1.374999993E-4,-1.649999991E-3,-5.774999969E-3
5.244900870E-1,-1.374999993E-4,-1.649999991E-3,-4.812499974E-3
5.269907030E-1,-1.374999993E-4,-1.649999991E-3,-2.612499986E-3
5.294913050E-1,2.062499989E-3,5.499999970E-4,-5.499999970E-4
5.319919200E-1,-1.374999993E-4,5.499999970E-4,2.612499986E-3
5.344925350E-1,-1.374999993E-4,-5.499999970E-4,1.649999991E-3
5.369931500E-1,-1.374999993E-4,-5.499999970E-4,5.912499968E-3
5.394937700E-1,9.624999948E-4,-5.499999970E-4,4.812499974E-3
5.419943850E-1,-1.374999993E-4,5.499999970E-4,9.074999951E-3
5.444950000E-1,9.624999948E-4,-5.499999970E-4,1.017499994E-2
5.469956160E-1,-1.374999993E-4,5.499999970E-4,1.223750040E-2
5.494962370E-1,-1.374999993E-4,1.649999991E-3,1.333750039E-2
5.519968530E-1,-1.374999993E-4,-5.499999970E-4,1.333750039E-2
5.544974690E-1,-1.374999993E-4,5.499999970E-4,1.539999992E-2
5.569980840E-1,9.624999948E-4,-5.499999970E-4,1.539999992E-2
5.594987080E-1,9.624999948E-4,5.499999970E-4,1.649999991E-2
5.619993230E-1,-1.374999993E-4,5.499999970E-4,1.869999990E-2
5.644999380E-1,9.624999948E-4,5.499999970E-4,1.649999991E-2
5.670005530E-1,-1.099999994E-3,-1.649999991E-3,1.869999990E-2
5.695011680E-1,-1.374999993E-4,-5.499999970E-4,1.649999991E-2
5.720017830E-1,-1.099999994E-3,-5.499999970E-4,1.649999991E-2
5.745023990E-1,-1.374999993E-4,-5.499999970E-4,1.759999990E-2
5.770030150E-1,-1.374999993E-4,5.499999970E-4,1.759999990E-2
5.795036310E-1,9.624999948E-4,-1.649999991E-3,1.869999990E-2
5.820042170E-1,-2.199999988E-3,5.499999970E-4,1.759999990E-2
5.845048320E-1,-1.374999993E-4,-5.499999970E-4,1.649999991E-2
5.870054470E-1,-1.099999994E-3,1.649999991E-3,1.759999990E-2
5.895060620E-1,9.624999948E-4,1.649999991E-3,1.649999991E-2
5.920066770E-1,9.624999948E-4,5.499999970E-4,1.649999991E-2
5.945072920E-1,2.062499989E-3,5.499999970E-4,1.759999990E-2
5.970079070E-1,9.624999948E-4,-5.499999970E-4,1.443750039E-2
5.995085230E-1,9.624999948E-4,5.499999970E-4,1.333750039E-2
6.020091350E-1,-1.374999993E-4,-1.649999991E-3,1.333750039E-2
6.045097510E-1,-1.374999993E-4,-5.499999970E-4,1.333750039E-2
6.070103670E-1,-1.374999993E-4,-5.499999970E-4,9.074999951E-3
6.095109820E-1,2.062499989E-3,-5.499999970E-4,9.074999951E-3
6.120115970E-1,-1.374999993E-4,-5.499999970E-4,7.974999957E-3
6.145122110E-1,-1.374999993E-4,-5.499999970E-4,5.912499968E-3
6.170128260E-1,-1.099999994E-3,-1.649999991E-3,3.712499980E-3
6.195134410E-1,-1.374999993E-4,5.499999970E-4,3.712499980E-3
6.220140560E-1,-2.199999988E-3,-5.499999970E-4,2.612499986E-3
6.245146920E-1,-1.374999993E-4,-1.649999991E-3,5.499999970E-4
6.270153080E-1,-1.099999994E-3,-5.499999970E-4,3.712499980E-3
6.295159240E-1,-1.374999993E-4,-5.499999970E-4,1.649999991E-3
6.320165400E-1,-1.374999993E-4,5.499999970E-4,2.612499986E-3
6.345171450E-1,-1.374999993E-4,-5.499999970E-4,1.649999991E-3
6.370177600E-1,-1.374999993E-4,5.499999970E-4,2.612499986E-3
6.395183750E-1,9.624999948E-4,5.499999970E-4,3.712499980E-3
6.420189900E-1,-1.099999994E-3,-5.499999970E-4,2.612499986E-3
6.445195950E-1,-1.374999993E-4,-5.499999970E-4,3.712499980E-3
6.470202100E-1,-1.374999993E-4,1.649999991E-3,2.612499986E-3
6.495208260E-1,-1.099999994E-3,5.499999970E-4,3.712499980E-3
6.520214420E-1,9.624999948E-4,-5.499999970E-4,3.712499980E-3
6.545220580E-1,-1.374999993E-4,-1.649999991E-3,2.612499986E-3
6.570226740E-1,-1.374999993E-4,-5.499999970E-4,2.612499986E-3
6.595232890E-1,9.624999948E-4,5.499999970E-4,1.649999991E-3
6.620239040E-1,-1.374999993E-4,5.499999970E-4,1.649999991E-3
6.645245190E-1,-1.374999993E-4,-2.612499986E-3,5.499999970E-4
6.670251250E-1,-1.374999993E-4,5.499999970E-4,5.499999970E-4
6.695257400E-1,-1.099999994E-3,-5.499999970E-4,5.499999970E-4
6.720263550E-1,-1.099999994E-3,-1.649999991E-3,-5.499999970E-4
6.745269700E-1,-1.099999994E-3,-5.499999970E-4,5.499999970E-4
6.770275810E-1,-1.099999994E-3,-5.499999970E-4,-5.499999970E-4
6.795281970E-1,-1.374999993E-4,5.499999970E-4,-2.612499986E-3
6.820288130E-1,-1.099999994E-3,5.499999970E-4,-2.612499986E-3
6.845294290E-1,-1.374999993E-4,-5.499999970E-4,-2.612499986E-3
6.870300490E-1,-1.374999993E-4,5.499999970E-4,-2.612499986E-3
6.895306640E-1,-1.374999993E-4,5.499999970E-4,-3.712499980E-3
6.920312030E-1,-1.374999993E-4,5.499999970E-4,-5.774999969E-3
6.945318940E-1,9.624999948E-4,-5.499999970E-4,-5.774999969E-3
6.970324480E-1,-1.099999994E-3,5.499999970E-4,-1.003750041E-2
6.995331380E-1,9.624999948E-4,-5.499999970E-4,-1.223750040E-2
7.020336790E-1,-1.374999993E-4,-5.499999970E-4,-1.113750041E-2
7.045342920E-1,-1.374999993E-4,5.499999970E-4,-1.333750039E-2
7.070349130E-1,-1.374999993E-4,-5.499999970E-4,-1.333750039E-2
7.095355280E-1,-1.374999993E-4,5.499999970E-4,-1.539999992E-2
7.120361430E-1,-1.099999994E-3,-5.499999970E-4,-1.759999990E-2
7.145367590E-1,-1.374999993E-4,-5.499999970E-4,-1.759999990E-2
7.170373590E-1,-1.374999993E-4,5.499999970E-4,-1.856249943E-2
7.195380510E-1,-1.374999993E-4,-5.499999970E-4,-1.856249943E-2
7.220385920E-1,-1.374999993E-4,-1.649999991E-3,-1.856249943E-2
7.245392820E-1,-1.099999994E-3,-5.499999970E-4,-1.759999990E-2
7.270398190E-1,-1.099999994E-3,-1.649999991E-3,-1.649999991E-2
7.295405090E-1,-1.374999993E-4,5.499999970E-4,-1.759999990E-2
7.320410490E-1,-1.374999993E-4,-5.499999970E-4,-1.759999990E-2
7.345417400E-1,-1.374999993E-4,5.499999970E-4,-1.649999991E-2
7.370422460E-1,-1.099999994E-3,-1.649999991E-3,-1.759999990E-2
7.395429370E-1,-1.374999993E-4,-5.499999970E-4,-1.856249943E-2
7.420434770E-1,-1.099999994E-3,-5.499999970E-4,-1.856249943E-2
7.445440900E-1,-1.099999994E-3,-1.649999991E-3,-1.966249943E-2
7.470447310E-1,-1.374999993E-4,-1.649999991E-3,-1.856249943E-2
7.495453460E-1,-1.374999993E-4,-5.499999970E-4,-1.856249943E-2
7.520459620E-1,-1.374999993E-4,-5.499999970E-4,-1.856249943E-2
7.545465770E-1,-1.374999993E-4,5.499999970E-4,-2.186249942E-2
7.570472060E-1,-1.099999994E-3,-5.499999970E-4,-2.186249942E-2
7.595478220E-1,-1.099999994E-3,-5.499999970E-4,-2.186249942E-2
7.620484380E-1,-1.374999993E-4,-5.499999970E-4,-1.966249943E-2
7.645490540E-1,-1.374999993E-4,-5.499999970E-4,-2.076249942E-2
7.670496750E-1,-1.374999993E-4,5.499999970E-4,-2.076249942E-2
7.695502900E-1,-1.099999994E-3,5.499999970E-4,-2.076249942E-2
7.720509050E-1,-1.099999994E-3,-5.499999970E-4,-1.856249943E-2
7.745515200E-1,-1.374999993E-4,-5.499999970E-4,-2.076249942E-2
7.770521400E-1,-1.374999993E-4,-5.499999970E-4,-1.966249943E-2
7.795527550E-1,-1.374999993E-4,-1.649999991E-3,-1.759999990E-2
7.820533700E-1,9.624999948E-4,-5.499999970E-4,-1.966249943E-2
7.845539860E-1,9.624999948E-4,5.499999970E-4,-1.759999990E-2
7.870546020E-1,9.624999948E-4,-1.649999991E-3,-1.759999990E-2
7.895551990E-1,9.624999948E-4,1.649999991E-3,-1.966249943E-2
7.920558150E-1,-1.374999993E-4,5.499999970E-4,-1.966249943E-2
7.945564300E-1,9.624999948E-4,5.499999970E-4,-2.076249942E-2
7.970570450E-1,-1.374999993E-4,-1.649999991E-3,-2.076249942E-2
7.995576550E-1,2.062499989E-3,-5.499999970E-4,-2.076249942E-2
8.020582700E-1,9.624999948E-4,5.499999970E-4,-1.966249943E-2
8.045588850E-1,-1.374999993E-4,-5.499999970E-4,-2.392499894E-2
8.070595000E-1,-2.199999988E-3,-5.499999970E-4,-2.282499894E-2
8.095600960E-1,-1.374999993E-4,-1.649999991E-3,-2.502499893E-2
8.120607120E-1,9.624999948E-4,-5.499999970E-4,-2.186249942E-2
8.145613280E-1,-1.374999993E-4,-5.499999970E-4,-2.186249942E-2
8.170619440E-1,-1.099999994E-3,5.499999970E-4,-2.186249942E-2
8.195625740E-1,-1.099999994E-3,-5.499999970E-4,-2.076249942E-2
8.220631890E-1,-1.374999993E-4,-5.499999970E-4,-1.966249943E-2
8.245638040E-1,-1.374999993E-4,-1.649999991E-3,-1.759999990E-2
8.270644190E-1,-1.099999994E-3,-5.499999970E-4,-1.759999990E-2
8.295650480E-1,-1.099999994E-3,-5.499999970E-4,-1.539999992E-2
8.320656630E-1,-1.099999994E-3,-1.649999991E-3,-1.539999992E-2
8.345662780E-1,-1.374999993E-4,-5.499999970E-4,-1.429999992E-2
8.370668940E-1,-2.199999988E-3,-5.499999970E-4,-1.333750039E-2
8.395675100E-1,-1.099999994E-3,5.499999970E-4,-1.429999992E-2
8.420681310E-1,-1.374999993E-4,5.499999970E-4,-1.223750040E-2
8.445687470E-1,-1.374999993E-4,-5.499999970E-4,-1.223750040E-2
8.470693620E-1,-1.374999993E-4,-5.499999970E-4,-1.113750041E-2
8.495699770E-1,-1.374999993E-4,-5.499999970E-4,-1.223750040E-2
8.520705780E-1,-1.374999993E-4,5.499999970E-4,-1.113750041E-2
8.545711930E-1,9.624999948E-4,-5.499999970E-4,-1.113750041E-2
8.570718080E-1,-1.374999993E-4,-5.499999970E-4,-1.003750041E-2
8.595724230E-1,9.624999948E-4,-5.499999970E-4,-9.074999951E-3
8.620730390E-1,9.624999948E-4,5.499999970E-4,-6.874999963E-3
8.645736550E-1,-1.374999993E-4,-5.499999970E-4,-6.874999963E-3
8.670742710E-1,-1.099999994E-3,-1.649999991E-3,-4.812499974E-3
8.695748870E-1,-1.374999993E-4,-5.499999970E-4,-4.812499974E-3
8.720755010E-1,-1.374999993E-4,-5.499999970E-4,-3.712499980E-3
8.745761160E-1,-1.374999993E-4,-1.649999991E-3,-1.649999991E-3
8.770767310E-1,9.624999948E-4,1.649999991E-3,-5.499999970E-4
8.795773460E-1,-1.099999994E-3,5.499999970E-4,5.499999970E-4
8.820779760E-1,9.624999948E-4,5.499999970E-4,-3.712499980E-3
8.845785910E-1,-1.374999993E-4,-5.499999970E-4,5.499999970E-4
8.870792070E-1,9.624999948E-4,-5.499999970E-4,-1.649999991E-3
8.895795930E-1,9.624999948E-4,-1.649999991E-3,-1.649999991E-3
8.920801970E-1,-1.374999993E-4,5.499999970E-4,-5.499999970E-4
8.945810430E-1,9.624999948E-4,-1.649999991E-3,-1.649999991E-3
8.970814290E-1,-1.099999994E-3,5.499999970E-4,-2.612499986E-3
8.995822740E-1,-1.374999993E-4,5.499999970E-4,-2.612499986E-3
9.020828910E-1,9.624999948E-4,-1.649999991E-3,-2.612499986E-3
9.045832810E-1,-1.374999993E-4,-5.499999970E-4,-3.712499980E-3
9.070838940E-1,-1.374999993E-4,-5.499999970E-4,-2.612499986E-3
9.095845090E-1,9.624999948E-4,-1.649999991E-3,-3.712499980E-3
9.120851250E-1,-1.374999993E-4,5.499999970E-4,-2.612499986E-3
9.145859710E-1,9.624999948E-4,-5.499999970E-4,-5.499999970E-4
9.170863580E-1,-1.374999993E-4,5.499999970E-4,5.499999970E-4
9.195869710E-1,-1.099999994E-3,5.499999970E-4,-5.499999970E-4
9.220875860E-1,-1.374999993E-4,-1.649999991E-3,-1.649999991E-3
9.245884240E-1,-1.099999994E-3,-5.499999970E-4,5.499999970E-4
9.270890410E-1,-1.374999993E-4,5.499999970E-4,1.649999991E-3
9.295894260E-1,-1.374999993E-4,-2.612499986E-3,-5.499999970E-4
9.320900390E-1,9.624999948E-4,5.499999970E-4,5.499999970E-4
9.345906390E-1,9.624999948E-4,5.499999970E-4,5.499999970E-4
9.370912550E-1,9.624999948E-4,5.499999970E-4,3.712499980E-3
9.395918700E-1,2.062499989E-3,1.649999991E-3,2.612499986E-3
9.420924860E-1,-1.374999993E-4,1.649999991E-3,1.649999991E-3
9.445931060E-1,-1.374999993E-4,5.499999970E-4,5.499999970E-4
9.470937210E-1,9.624999948E-4,-5.499999970E-4,1.649999991E-3
9.495943370E-1,-1.374999993E-4,-5.499999970E-4,3.712499980E-3
9.520949530E-1,-1.374999993E-4,1.649999991E-3,2.612499986E-3
9.545955830E-1,9.624999948E-4,1.649999991E-3,2.612499986E-3
9.570961990E-1,-1.374999993E-4,-5.499999970E-4,4.812499974E-3
9.595968140E-1,9.624999948E-4,5.499999970E-4,3.712499980E-3
9.620974290E-1,9.624999948E-4,5.499999970E-4,5.912499968E-3
9.645980440E-1,-1.099999994E-3,-5.499999970E-4,3.712499980E-3
9.670986880E-1,-1.374999993E-4,-5.499999970E-4,6.874999963E-3
9.695993030E-1,-1.374999993E-4,5.499999970E-4,4.812499974E-3
9.720999180E-1,-1.099999994E-3,-5.499999970E-4,6.874999963E-3
9.746005340E-1,-2.199999988E-3,5.499999970E-4,7.974999957E-3
9.771011730E-1,-1.374999993E-4,5.499999970E-4,1.017499994E-2
9.796017890E-1,9.624999948E-4,-5.499999970E-4,7.974999957E-3
9.821024050E-1,-1.374999993E-4,-5.499999970E-4,9.074999951E-3
9.846030200E-1,-1.374999993E-4,5.499999970E-4,7.974999957E-3
9.871036260E-1,9.624999948E-4,-5.499999970E-4,9.074999951E-3
9.896042410E-1,9.624999948E-4,5.499999970E-4,7.974999957E-3
9.921048560E-1,2.062499989E-3,5.499999970E-4,7.974999957E-3
9.946054710E-1,9.624999948E-4,-5.499999970E-4,6.874999963E-3
9.971060860E-1,9.624999948E-4,-5.499999970E-4,6.874999963E-3
9.996067020E-1,2.062499989E-3,-5.499999970E-4,1.017499994E-2
1.002107318E0,-1.374999993E-4,5.499999970E-4,1.113750041E-2
1.004607934E0,9.624999948E-4,1.649999991E-3,1.017499994E-2
1.007108550E0,9.624999948E-4,5.499999970E-4,1.017499994E-2
1.009609165E0,9.624999948E-4,1.649999991E-3,1.223750040E-2
1.012109780E0,2.062499989E-3,1.649999991E-3,1.113750041E-2
1.014610395E0,-1.374999993E-4,5.499999970E-4,1.223750040E-2
1.017111014E0,2.062499989E-3,1.649999991E-3,1.223750040E-2
1.019611629E0,-1.374999993E-4,5.499999970E-4,1.333750039E-2
1.022112244E0,-1.374999993E-4,-5.499999970E-4,1.333750039E-2
1.024612859E0,-1.374999993E-4,1.649999991E-3,1.443750039E-2
1.027113471E0,9.624999948E-4,-5.499999970E-4,1.333750039E-2
1.029614087E0,9.624999948E-4,-5.499999970E-4,1.443750039E-2
1.032114703E0,-1.374999993E-4,5.499999970E-4,1.443750039E-2
1.034615319E0,9.624999948E-4,-5.499999970E-4,1.223750040E-2
1.037115934E0,-1.374999993E-4,-1.649999991E-3,1.223750040E-2
1.039616549E0,9.624999948E-4,1.649999991E-3,1.333750039E-2
1.042117088E0,-1.374999993E-4,5.499999970E-4,1.017499994E-2
1.044617779E0,9.624999948E-4,-5.499999970E-4,1.017499994E-2
1.047118319E0,9.624999948E-4,5.499999970E-4,1.017499994E-2
1.049619023E0,-1.374999993E-4,5.499999970E-4,7.974999957E-3
1.052119641E0,2.062499989E-3,-5.499999970E-4,6.874999963E-3
1.054620256E0,-1.374999993E-4,5.499999970E-4,5.912499968E-3
1.057120871E0,-1.374999993E-4,-5.499999970E-4,2.612499986E-3
1.059621501E0,-1.374999993E-4,-1.649999991E-3,2.612499986E-3
1.062122116E0,9.624999948E-4,5.499999970E-4,2.612499986E-3
1.064622731E0,9.624999948E-4,5.499999970E-4,5.499999970E-4
1.067123346E0,-1.374999993E-4,-5.499999970E-4,1.649999991E-3
1.069623961E0,-1.099999994E-3,1.649999991E-3,2.612499986E-3
1.072124576E0,-1.374999993E-4,-1.649999991E-3,-5.499999970E-4
1.074625191E0,-1.374999993E-4,-5.499999970E-4,-5.499999970E-4
1.077125807E0,-1.374999993E-4,1.649999991E-3,-5.499999970E-4
1.079626423E0,9.624999948E-4,-5.499999970E-4,-5.499999970E-4
1.082127050E0,-1.374999993E-4,5.499999970E-4,-3.712499980E-3
1.084627666E0,9.624999948E-4,5.499999970E-4,-3.712499980E-3
1.087128281E0,-1.099999994E-3,5.499999970E-4,-2.612499986E-3
1.089628896E0,-1.374999993E-4,5.499999970E-4,-4.812499974E-3
1.092129506E0,2.062499989E-3,-5.499999970E-4,-4.812499974E-3
1.094630045E0,-1.374999993E-4,-5.499999970E-4,-6.874999963E-3
1.097130659E0,-1.374999993E-4,-5.499999970E-4,-5.774999969E-3
1.099631274E0,-1.374999993E-4,5.499999970E-4,-3.712499980E-3
1.102131919E0,-1.374999993E-4,5.499999970E-4,-5.774999969E-3
1.104632534E0,-1.374999993E-4,-5.499999970E-4,-4.812499974E-3
1.107133149E0,-1.374999993E-4,-5.499999970E-4,-4.812499974E-3
1.109633765E0,9.624999948E-4,5.499999970E-4,-4.812499974E-3
1.112134381E0,-1.374999993E-4,5.499999970E-4,-4.812499974E-3
1.114635001E0,-1.374999993E-4,-5.499999970E-4,-4.812499974E-3
1.117135617E0,9.624999948E-4,-5.499999970E-4,-3.712499980E-3
1.119636232E0,-1.374999993E-4,1.649999991E-3,-4.812499974E-3
1.122136847E0,-1.374999993E-4,-5.499999970E-4,-5.774999969E-3
1.124637448E0,-1.374999993E-4,5.499999970E-4,-5.774999969E-3
1.127138063E0,9.624999948E-4,1.649999991E-3,-5.774999969E-3
1.129638678E0,9.624999948E-4,5.499999970E-4,-5.774999969E-3
1.132139293E0,-1.374999993E-4,-5.499999970E-4,-6.874999963E-3
1.134639890E0,-1.374999993E-4,-5.499999970E-4,-6.874999963E-3
1.137140506E0,9.624999948E-4,5.499999970E-4,-9.074999951E-3
1.139641122E0,-1.374999993E-4,5.499999970E-4,-9.074999951E-3
1.142141738E0,9.624999948E-4,-5.499999970E-4,-1.003750041E-2
1.144642358E0,-1.374999993E-4,-5.499999970E-4,-1.223750040E-2
1.147142973E0,-1.099999994E-3,5.499999970E-4,-9.074999951E-3
1.149643588E0,9.624999948E-4,5.499999970E-4,-1.113750041E-2
1.152144203E0,-1.374999993E-4,-1.649999991E-3,-1.223750040E-2
1.154644813E0,-1.374999993E-4,5.499999970E-4,-1.333750039E-2
1.157145428E0,9.624999948E-4,5.499999970E-4,-1.429999992E-2
1.159646044E0,-1.374999993E-4,5.499999970E-4,-1.333750039E-2
1.162146660E0,2.062499989E-3,1.649999991E-3,-1.429999992E-2
1.164647276E0,-1.374999993E-4,-1.649999991E-3,-1.539999992E-2
1.167147877E0,-1.099999994E-3,-5.499999970E-4,-1.966249943E-2
1.169648492E0,-1.099999994E-3,-5.499999970E-4,-1.966249943E-2
1.172149107E0,-1.374999993E-4,-1.649999991E-3,-2.282499894E-2
1.174649722E0,-2.199999988E-3,-1.649999991E-3,-2.502499893E-2
1.177150103E0,-1.374999993E-4,-5.499999970E-4,-2.502499893E-2
1.179650947E0,-1.099999994E-3,-5.499999970E-4,-2.708750032E-2
1.182151564E0,9.624999948E-4,-5.499999970E-4,-2.818750031E-2
1.184652179E0,2.062499989E-3,-5.499999970E-4,-2.928750031E-2
1.187152564E0,9.624999948E-4,-5.499999970E-4,-3.135000169E-2
1.189653408E0,-1.374999993E-4,1.649999991E-3,-3.135000169E-2
1.192153795E0,9.624999948E-4,-5.499999970E-4,-3.244999796E-2
1.194654639E0,-1.099999994E-3,-1.649999991E-3,-3.355000168E-2
1.197155026E0,9.624999948E-4,5.499999970E-4,-3.451250121E-2
1.199655870E0,-1.374999993E-4,5.499999970E-4,-3.671250120E-2
1.202156256E0,-1.374999993E-4,-5.499999970E-4,-3.781250119E-2
1.204657101E0,-1.099999994E-3,-5.499999970E-4,-3.781250119E-2
1.207157473E0,-1.099999994E-3,5.499999970E-4,-3.877500072E-2
1.209658317E0,-1.374999993E-4,5.499999970E-4,-3.877500072E-2
1.212158704E0,-1.374999993E-4,-5.499999970E-4,-3.987500072E-2
1.214659548E0,-1.374999993E-4,-5.499999970E-4,-3.987500072E-2
1.217159935E0,-1.374999993E-4,-5.499999970E-4,-4.303750023E-2
1.219660760E0,-1.099999994E-3,-5.499999970E-4,-4.207500070E-2
1.222161377E0,-1.374999993E-4,5.499999970E-4,-4.523750022E-2
1.224661993E0,-1.374999993E-4,-5.499999970E-4,-4.633750021E-2
1.227162377E0,-1.374999993E-4,-5.499999970E-4,-4.523750022E-2
1.229662962E0,-1.374999993E-4,-5.499999970E-4,-4.839999974E-2
1.232163577E0,9.624999948E-4,5.499999970E-4,-4.949999973E-2
1.234664193E0,-1.374999993E-4,5.499999970E-4,-4.633750021E-2
1.237164808E0,-1.374999993E-4,-5.499999970E-4,-4.413750023E-2
1.239665423E0,9.624999948E-4,-5.499999970E-4,-4.413750023E-2
1.242166039E0,-1.374999993E-4,-1.649999991E-3,-4.207500070E-2
1.244666654E0,9.624999948E-4,-5.499999970E-4,-3.781250119E-2
1.247167269E0,9.624999948E-4,-1.649999991E-3,-3.781250119E-2
1.249667860E0,9.624999948E-4,5.499999970E-4,-3.561250120E-2
1.252168476E0,3.162499983E-3,1.649999991E-3,-3.451250121E-2
1.254669092E0,2.062499989E-3,-5.499999970E-4,-2.818750031E-2
1.257169708E0,-1.374999993E-4,5.499999970E-4,-2.502499893E-2
1.259670337E0,2.062499989E-3,5.499999970E-4,-2.282499894E-2
1.262170952E0,9.624999948E-4,-5.499999970E-4,-2.076249942E-2
1.264671567E0,-1.099999994E-3,-1.649999991E-3,-1.856249943E-2
1.267172182E0,-1.374999993E-4,-1.649999991E-3,-1.539999992E-2
1.269672797E0,-1.099999994E-3,-5.499999970E-4,-1.223750040E-2
1.272173383E0,-1.374999993E-4,1.649999991E-3,-9.074999951E-3
1.274673999E0,9.624999948E-4,-5.499999970E-4,-5.774999969E-3
1.277174615E0,2.062499989E-3,5.499999970E-4,-1.649999991E-3
1.279675231E0,2.062499989E-3,5.499999970E-4,2.612499986E-3
1.282175843E0,9.624999948E-4,-5.499999970E-4,4.812499974E-3
1.284676458E0,9.624999948E-4,2.612499986E-3,9.074999951E-3
1.287177073E0,9.624999948E-4,1.649999991E-3,1.113750041E-2
1.289677688E0,9.624999948E-4,-5.499999970E-4,1.443750039E-2
1.292178322E0,-1.374999993E-4,5.499999970E-4,1.869999990E-2
1.294678937E0,-1.099999994E-3,5.499999970E-4,2.186249942E-2
1.297179552E0,-1.099999994E-3,-1.649999991E-3,2.502499893E-2
1.299680168E0,9.624999948E-4,-5.499999970E-4,2.708750032E-2
1.302180784E0,-1.099999994E-3,5.499999970E-4,3.038750030E-2
1.304681400E0,9.624999948E-4,1.649999991E-3,3.355000168E-2
1.307182016E0,-1.374999993E-4,5.499999970E-4,3.561250120E-2
1.309682631E0,9.624999948E-4,5.499999970E-4,3.781250119E-2
1.312183231E0,9.624999948E-4,-5.499999970E-4,3.987500072E-2
1.314683846E0,-1.374999993E-4,-5.499999970E-4,4.097500071E-2
1.317184461E0,-1.374999993E-4,-5.499999970E-4,4.207500070E-2
1.319685076E0,-1.099999994E-3,-5.499999970E-4,4.413750023E-2
1.322185706E0,-2.199999988E-3,-5.499999970E-4,4.523750022E-2
1.324686322E0,9.624999948E-4,-5.499999970E-4,4.633750021E-2
1.327186938E0,-1.374999993E-4,-5.499999970E-4,4.743750021E-2
1.329687554E0,9.624999948E-4,1.649999991E-3,5.156249925E-2
1.332188184E0,-1.374999993E-4,1.649999991E-3,5.156249925E-2
1.334688799E0,9.624999948E-4,2.612499986E-3,5.266249925E-2
1.337189414E0,9.624999948E-4,5.499999970E-4,5.486249924E-2
1.339690029E0,-1.374999993E-4,-5.499999970E-4,5.582499877E-2
1.342190649E0,-1.374999993E-4,1.649999991E-3,5.802499875E-2
1.344691264E0,-1.099999994E-3,-5.499999970E-4,5.802499875E-2
1.347191879E0,-1.374999993E-4,-1.649999991E-3,5.802499875E-2
1.349692494E0,-1.099999994E-3,5.499999970E-4,6.008749828E-2
1.352193091E0,-1.374999993E-4,-1.649999991E-3,6.008749828E-2
1.354693707E0,-1.374999993E-4,-5.499999970E-4,6.008749828E-2
1.357194323E0,9.624999948E-4,5.499999970E-4,5.912499875E-2
1.359694939E0,9.624999948E-4,5.499999970E-4,6.008749828E-2
1.362195558E0,9.624999948E-4,5.499999970E-4,5.692499876E-2
1.364696173E0,-1.374999993E-4,5.499999970E-4,5.692499876E-2
1.367196788E0,9.624999948E-4,5.499999970E-4,5.582499877E-2
1.369697403E0,-1.374999993E-4,-1.649999991E-3,5.376249924E-2
1.372198018E0,-1.374999993E-4,-5.499999970E-4,5.376249924E-2
1.374698643E0,-2.199999988E-3,-5.499999970E-4,5.059999973E-2
1.377199259E0,-2.199999988E-3,5.499999970E-4,5.059999973E-2
1.379699875E0,9.624999948E-4,5.499999970E-4,4.839999974E-2
1.382200491E0,9.624999948E-4,5.499999970E-4,4.949999973E-2
1.384701097E0,9.624999948E-4,3.712499980E-3,4.633750021E-2
1.387201712E0,3.162499983E-3,5.499999970E-4,4.633750021E-2
1.389702327E0,9.624999948E-4,1.649999991E-3,4.523750022E-2
1.392202942E0,-1.374999993E-4,5.499999970E-4,4.317500070E-2
1.394703572E0,-1.374999993E-4,5.499999970E-4,4.317500070E-2
1.397204187E0,-1.099999994E-3,-5.499999970E-4,3.987500072E-2
1.399704802E0,-1.099999994E-3,-5.499999970E-4,3.671250120E-2
1.402205343E0,-1.099999994E-3,-5.499999970E-4,3.464999795E-2
1.404706033E0,-1.374999993E-4,-5.499999970E-4,3.244999796E-2
1.407206588E0,-1.374999993E-4,5.499999970E-4,3.038750030E-2
1.409707201E0,2.062499989E-3,5.499999970E-4,2.708750032E-2
1.412207816E0,9.624999948E-4,-5.499999970E-4,2.282499894E-2
1.414708432E0,9.624999948E-4,1.649999991E-3,2.186249942E-2
1.417209038E0,-1.374999993E-4,-5.499999970E-4,1.649999991E-2
1.419709654E0,9.624999948E-4,5.499999970E-4,1.443750039E-2
1.422210270E0,-1.374999993E-4,5.499999970E-4,1.017499994E-2
1.424710886E0,-1.374999993E-4,-5.499999970E-4,6.874999963E-3
1.427211502E0,-1.099999994E-3,-5.499999970E-4,3.712499980E-3
1.429712112E0,-1.099999994E-3,5.499999970E-4,-5.499999970E-4
1.432212727E0,9.624999948E-4,5.499999970E-4,-3.712499980E-3
1.434713342E0,9.624999948E-4,1.649999991E-3,-7.974999957E-3
1.437213957E0,2.062499989E-3,1.649999991E-3,-1.003750041E-2
1.439714581E0,9.624999948E-4,5.499999970E-4,-1.333750039E-2
1.442215196E0,9.624999948E-4,5.499999970E-4,-1.966249943E-2
1.444715811E0,9.624999948E-4,-5.499999970E-4,-2.282499894E-2
1.447216427E0,-1.374999993E-4,5.499999970E-4,-2.612499893E-2
1.449717029E0,-1.099999994E-3,5.499999970E-4,-3.135000169E-2
1.452217645E0,9.624999948E-4,-5.499999970E-4,-3.451250121E-2
1.454718261E0,9.624999948E-4,-1.649999991E-3,-3.561250120E-2
1.457218876E0,-1.374999993E-4,-1.649999991E-3,-4.303750023E-2
1.459719491E0,9.624999948E-4,5.499999970E-4,-4.729999974E-2
1.462220087E0,3.162499983E-3,-5.499999970E-4,-4.949999973E-2
1.464720702E0,-1.099999994E-3,5.499999970E-4,-5.486249924E-2
1.467221317E0,2.062499989E-3,-5.499999970E-4,-5.582499877E-2
1.469721932E0,2.062499989E-3,5.499999970E-4,-6.008749828E-2
1.472222552E0,2.062499989E-3,-1.649999991E-3,-6.435000151E-2
1.474723168E0,-1.374999993E-4,-1.649999991E-3,-6.655000150E-2
1.477223784E0,-1.374999993E-4,-5.499999970E-4,-6.655000150E-2
1.479724400E0,9.624999948E-4,5.499999970E-4,-7.081250101E-2
1.482225025E0,9.624999948E-4,-1.649999991E-3,-7.081250101E-2
1.484725640E0,9.624999948E-4,1.649999991E-3,-7.177499682E-2
1.487226255E0,2.062499989E-3,5.499999970E-4,-7.507500052E-2
1.489726870E0,2.062499989E-3,1.649999991E-3,-7.603749633E-2
1.492227480E0,-1.374999993E-4,1.649999991E-3,-7.713750005E-2
1.494728095E0,2.062499989E-3,-5.499999970E-4,-7.713750005E-2
1.497228711E0,2.062499989E-3,5.499999970E-4,-7.823749632E-2
1.499729327E0,-1.374999993E-4,-5.499999970E-4,-7.823749632E-2
1.502229943E0,-1.374999993E-4,-2.612499986E-3,-8.030000329E-2
1.504730559E0,2.062499989E-3,-1.649999991E-3,-8.249999583E-2
1.507231174E0,-1.374999993E-4,-5.499999970E-4,-8.030000329E-2
1.509731789E0,9.624999948E-4,-2.612499986E-3,-8.030000329E-2
1.512232399E0,2.062499989E-3,-5.499999970E-4,-8.249999583E-2
1.514733014E0,2.062499989E-3,-5.499999970E-4,-8.346249908E-2
1.517233629E0,2.062499989E-3,5.499999970E-4,-8.030000329E-2
1.519734244E0,3.162499983E-3,-5.499999970E-4,-8.030000329E-2
1.522234865E0,9.624999948E-4,5.499999970E-4,-7.823749632E-2
1.524735481E0,2.062499989E-3,-5.499999970E-4,-7.713750005E-2
1.527236097E0,-1.374999993E-4,-5.499999970E-4,-7.507500052E-2
1.529736713E0,9.624999948E-4,-5.499999970E-4,-7.177499682E-2
1.532237328E0,-1.374999993E-4,1.649999991E-3,-7.081250101E-2
1.534737929E0,2.062499989E-3,-1.649999991E-3,-6.861250103E-2
1.537238544E0,9.624999948E-4,-5.499999970E-4,-6.544999778E-2
1.539739159E0,9.624999948E-4,1.649999991E-3,-6.544999778E-2
1.542239774E0,9.624999948E-4,2.612499986E-3,-6.118749827E-2
1.544740393E0,2.062499989E-3,1.649999991E-3,-5.802499875E-2
1.547241008E0,2.062499989E-3,-5.499999970E-4,-5.376249924E-2
1.549741624E0,9.624999948E-4,-1.649999991E-3,-5.059999973E-2
1.552242240E0,2.062499989E-3,-5.499999970E-4,-4.839999974E-2
1.554742871E0,9.624999948E-4,-5.499999970E-4,-4.523750022E-2
1.557243487E0,-1.374999993E-4,-5.499999970E-4,-4.413750023E-2
1.559744102E0,9.624999948E-4,-5.499999970E-4,-3.877500072E-2
1.562244717E0,-1.374999993E-4,-1.649999991E-3,-3.671250120E-2
1.564745332E0,-1.374999993E-4,-5.499999970E-4,-3.451250121E-2
1.567245980E0,9.624999948E-4,-5.499999970E-4,-2.928750031E-2
1.569746595E0,2.062499989E-3,5.499999970E-4,-2.502499893E-2
1.572247210E0,2.062499989E-3,5.499999970E-4,-2.076249942E-2
1.574747597E0,-1.374999993E-4,1.649999991E-3,-1.759999990E-2
1.577248432E0,9.624999948E-4,5.499999970E-4,-1.333750039E-2
1.579748819E0,9.624999948E-4,-5.499999970E-4,-9.074999951E-3
1.582249663E0,-1.099999994E-3,5.499999970E-4,-5.774999969E-3
1.584750050E0,-1.374999993E-4,5.499999970E-4,-2.612499986E-3
1.587250894E0,9.624999948E-4,1.649999991E-3,-5.499999970E-4
1.589751324E0,9.624999948E-4,1.649999991E-3,3.712499980E-3
1.592252168E0,9.624999948E-4,5.499999970E-4,6.874999963E-3
1.594752555E0,2.062499989E-3,5.499999970E-4,9.074999951E-3
1.597253168E0,9.624999948E-4,1.649999991E-3,1.333750039E-2
1.599753784E0,2.062499989E-3,-5.499999970E-4,1.443750039E-2
1.602254399E0,9.624999948E-4,-5.499999970E-4,1.759999990E-2
1.604755015E0,9.624999948E-4,5.499999970E-4,1.966249943E-2
1.607255630E0,-1.374999993E-4,-1.649999991E-3,2.076249942E-2
1.609756245E0,-1.374999993E-4,-1.649999991E-3,2.502499893E-2
1.612256856E0,-1.374999993E-4,-5.499999970E-4,2.708750032E-2
1.614757472E0,2.062499989E-3,5.499999970E-4,2.818750031E-2
1.617258088E0,9.624999948E-4,-5.499999970E-4,2.928750031E-2
1.619758704E0,2.062499989E-3,-5.499999970E-4,3.244999796E-2
1.622259329E0,9.624999948E-4,2.612499986E-3,3.561250120E-2
1.624759944E0,2.062499989E-3,5.499999970E-4,3.671250120E-2
1.627260559E0,2.062499989E-3,1.649999991E-3,4.207500070E-2
1.629761174E0,-1.099999994E-3,-1.649999991E-3,4.097500071E-2
1.632261803E0,-1.374999993E-4,5.499999970E-4,4.207500070E-2
1.634762418E0,-1.374999993E-4,5.499999970E-4,4.413750023E-2
1.637263034E0,-1.374999993E-4,5.499999970E-4,4.413750023E-2
1.639763650E0,-1.374999993E-4,1.649999991E-3,4.633750021E-2
1.642264266E0,9.624999948E-4,5.499999970E-4,4.743750021E-2
1.644764882E0,9.624999948E-4,5.499999970E-4,4.839999974E-2
1.647265497E0,-1.099999994E-3,5.499999970E-4,4.633750021E-2
1.649766112E0,9.624999948E-4,-5.499999970E-4,4.743750021E-2
1.652266727E0,-1.374999993E-4,5.499999970E-4,4.839999974E-2
1.654767347E0,-1.374999993E-4,-5.499999970E-4,4.839999974E-2
1.657267962E0,-1.099999994E-3,5.499999970E-4,4.949999973E-2
1.659768577E0,-1.374999993E-4,-5.499999970E-4,4.949999973E-2
1.662269193E0,-1.374999993E-4,-5.499999970E-4,4.839999974E-2
1.664769804E0,-1.374999993E-4,5.499999970E-4,4.949999973E-2
1.667270420E0,9.624999948E-4,5.499999970E-4,4.839999974E-2
1.669771036E0,9.624999948E-4,5.499999970E-4,4.949999973E-2
1.672271651E0,3.162499983E-3,-5.499999970E-4,4.839999974E-2
1.674772266E0,2.062499989E-3,1.649999991E-3,4.743750021E-2
1.677272876E0,-1.374999993E-4,1.649999991E-3,4.743750021E-2
1.679773491E0,2.062499989E-3,5.499999970E-4,4.523750022E-2
1.682274031E0,-1.099999994E-3,5.499999970E-4,4.317500070E-2
1.684774721E0,-1.099999994E-3,1.649999991E-3,4.317500070E-2
1.687275267E0,-1.374999993E-4,1.649999991E-3,4.317500070E-2
1.689775957E0,9.624999948E-4,5.499999970E-4,3.987500072E-2
1.692276497E0,9.624999948E-4,-5.499999970E-4,3.781250119E-2
1.694777188E0,9.624999948E-4,5.499999970E-4,3.561250120E-2
1.697277742E0,2.062499989E-3,1.649999991E-3,3.244999796E-2
1.699778356E0,9.624999948E-4,5.499999970E-4,3.038750030E-2
1.702278971E0,9.624999948E-4,-5.499999970E-4,2.818750031E-2
1.704779586E0,9.624999948E-4,5.499999970E-4,2.818750031E-2
1.707280202E0,9.624999948E-4,-5.499999970E-4,2.282499894E-2
1.709780817E0,-1.374999993E-4,-3.712499980E-3,2.186249942E-2
1.712281433E0,2.062499989E-3,1.649999991E-3,1.869999990E-2
1.714782049E0,-1.374999993E-4,-1.649999991E-3,1.539999992E-2
1.717282665E0,9.624999948E-4,-1.649999991E-3,1.333750039E-2
1.719783281E0,2.062499989E-3,5.499999970E-4,1.017499994E-2
1.722283971E0,9.624999948E-4,-1.649999991E-3,6.874999963E-3
1.724784511E0,9.624999948E-4,2.612499986E-3,6.874999963E-3
1.727285202E0,2.062499989E-3,1.649999991E-3,1.649999991E-3
1.729785713E0,2.062499989E-3,1.649999991E-3,5.499999970E-4
1.732286404E0,-1.374999993E-4,1.649999991E-3,-4.812499974E-3
1.734786944E0,9.624999948E-4,1.649999991E-3,-6.874999963E-3
1.737287634E0,-1.374999993E-4,-5.499999970E-4,-1.223750040E-2
1.739788137E0,-1.374999993E-4,2.612499986E-3,-1.539999992E-2
1.742288827E0,9.624999948E-4,5.499999970E-4,-1.856249943E-2
1.744789368E0,9.624999948E-4,-5.499999970E-4,-2.502499893E-2
1.747290058E0,-1.374999993E-4,-5.499999970E-4,-2.708750032E-2
1.749790593E0,-1.374999993E-4,1.649999991E-3,-2.928750031E-2
1.752291207E0,2.062499989E-3,-5.499999970E-4,-3.135000169E-2
1.754791822E0,-1.374999993E-4,-1.649999991E-3,-3.671250120E-2
1.757292438E0,9.624999948E-4,5.499999970E-4,-3.877500072E-2
1.759793053E0,-1.374999993E-4,-5.499999970E-4,-4.097500071E-2
1.762293668E0,2.062499989E-3,-5.499999970E-4,-4.303750023E-2
1.764794284E0,-1.374999993E-4,-1.649999991E-3,-4.413750023E-2
1.767294900E0,9.624999948E-4,5.499999970E-4,-4.633750021E-2
1.769795516E0,-1.374999993E-4,-5.499999970E-4,-4.839999974E-2
1.772296137E0,9.624999948E-4,5.499999970E-4,-4.949999973E-2
1.774796752E0,2.062499989E-3,5.499999970E-4,-5.059999973E-2
1.777297367E0,2.062499989E-3,2.612499986E-3,-5.266249925E-2
1.779797982E0,2.062499989E-3,1.649999991E-3,-5.266249925E-2
1.782298601E0,2.062499989E-3,5.499999970E-4,-5.486249924E-2
1.784799216E0,9.624999948E-4,1.649999991E-3,-5.692499876E-2
1.787299831E0,-1.374999993E-4,5.499999970E-4,-5.582499877E-2
1.789800447E0,9.624999948E-4,5.499999970E-4,-5.802499875E-2
1.792301063E0,9.624999948E-4,5.499999970E-4,-5.802499875E-2
1.794801680E0,-1.374999993E-4,1.649999991E-3,-6.008749828E-2
1.797302296E0,9.624999948E-4,-5.499999970E-4,-5.898749828E-2
1.799802911E0,9.624999948E-4,-5.499999970E-4,-5.898749828E-2
1.802303526E0,2.062499989E-3,5.499999970E-4,-5.898749828E-2
1.804804131E0,3.162499983E-3,5.499999970E-4,-5.802499875E-2
1.807304746E0,3.162499983E-3,1.649999991E-3,-5.802499875E-2
1.809805361E0,2.062499989E-3,-5.499999970E-4,-5.692499876E-2
1.812305976E0,9.624999948E-4,5.499999970E-4,-5.376249924E-2
1.814806587E0,2.062499989E-3,1.649999991E-3,-5.376249924E-2
1.817307203E0,2.062499989E-3,5.499999970E-4,-5.156249925E-2
1.819807819E0,2.062499989E-3,-5.499999970E-4,-5.059999973E-2
1.822308435E0,9.624999948E-4,1.649999991E-3,-4.949999973E-2
1.824808814E0,2.062499989E-3,1.649999991E-3,-4.839999974E-2
1.827309658E0,2.062499989E-3,1.649999991E-3,-4.633750021E-2
1.829810045E0,2.062499989E-3,1.649999991E-3,-4.413750023E-2
1.832310889E0,2.062499989E-3,1.649999991E-3,-4.303750023E-2
1.834811267E0,3.162499983E-3,-5.499999970E-4,-4.303750023E-2
1.837312111E0,9.624999948E-4,5.499999970E-4,-3.987500072E-2
1.839812498E0,-1.374999993E-4,-5.499999970E-4,-3.877500072E-2
1.842313342E0,-1.374999993E-4,-5.499999970E-4,-3.781250119E-2
1.844813728E0,2.062499989E-3,5.499999970E-4,-3.355000168E-2
1.847314346E0,2.062499989E-3,-1.649999991E-3,-3.355000168E-2
1.849814961E0,9.624999948E-4,5.499999970E-4,-2.818750031E-2
1.852315577E0,9.624999948E-4,5.499999970E-4,-2.502499893E-2
1.854816192E0,9.624999948E-4,-1.649999991E-3,-2.076249942E-2
1.857316793E0,9.624999948E-4,5.499999970E-4,-1.759999990E-2
1.859817409E0,9.624999948E-4,1.649999991E-3,-1.333750039E-2
1.862318024E0,2.062499989E-3,-1.649999991E-3,-5.774999969E-3
1.864818640E0,9.624999948E-4,-5.499999970E-4,-1.649999991E-3
1.867319237E0,-1.374999993E-4,5.499999970E-4,5.499999970E-4
1.869819853E0,-1.374999993E-4,5.499999970E-4,5.912499968E-3
1.872320469E0,-1.374999993E-4,-5.499999970E-4,1.017499994E-2
1.874821084E0,9.624999948E-4,5.499999970E-4,1.017499994E-2
1.877321694E0,2.062499989E-3,2.612499986E-3,1.333750039E-2
1.879822309E0,2.062499989E-3,1.649999991E-3,1.759999990E-2
1.882322924E0,9.624999948E-4,5.499999970E-4,1.759999990E-2
1.884823539E0,2.062499989E-3,5.499999970E-4,2.076249942E-2
1.887324144E0,2.062499989E-3,1.649999991E-3,2.612499893E-2
1.889824759E0,9.624999948E-4,5.499999970E-4,2.708750032E-2
1.892325375E0,-1.374999993E-4,-1.649999991E-3,2.818750031E-2
1.894825991E0,-1.374999993E-4,5.499999970E-4,3.135000169E-2
1.897326607E0,-1.099999994E-3,5.499999970E-4,3.038750030E-2
1.899827238E0,-1.374999993E-4,-1.649999991E-3,3.355000168E-2
1.902327853E0,9.624999948E-4,5.499999970E-4,3.464999795E-2
1.904828468E0,-1.374999993E-4,5.499999970E-4,3.561250120E-2
1.907329083E0,9.624999948E-4,-5.499999970E-4,3.781250119E-2
1.909829688E0,9.624999948E-4,-5.499999970E-4,3.891250119E-2
1.912330303E0,9.624999948E-4,5.499999970E-4,3.891250119E-2
1.914830918E0,9.624999948E-4,1.649999991E-3,3.987500072E-2
1.917331534E0,-1.374999993E-4,-5.499999970E-4,3.987500072E-2
1.919832150E0,-1.099999994E-3,-1.649999991E-3,4.097500071E-2
1.922332776E0,9.624999948E-4,2.612499986E-3,3.891250119E-2
1.924833392E0,-1.374999993E-4,-5.499999970E-4,3.987500072E-2
1.927334007E0,2.062499989E-3,-5.499999970E-4,3.987500072E-2
1.929834622E0,9.624999948E-4,5.499999970E-4,3.671250120E-2
1.932335217E0,2.062499989E-3,5.499999970E-4,3.781250119E-2
1.934835832E0,9.624999948E-4,-5.499999970E-4,3.464999795E-2
1.937336447E0,9.624999948E-4,5.499999970E-4,3.464999795E-2
1.939837062E0,-1.374999993E-4,1.649999991E-3,3.355000168E-2
1.942337659E0,9.624999948E-4,-5.499999970E-4,3.355000168E-2
1.944838275E0,-1.099999994E-3,-2.612499986E-3,3.244999796E-2
1.947338815E0,-1.099999994E-3,-5.499999970E-4,3.244999796E-2
1.949839428E0,-1.099999994E-3,-5.499999970E-4,3.244999796E-2
1.952340033E0,9.624999948E-4,5.499999970E-4,3.135000169E-2
1.954840649E0,-1.374999993E-4,-2.612499986E-3,3.135000169E-2
1.957341264E0,-1.374999993E-4,5.499999970E-4,3.135000169E-2
1.959841879E0,-1.374999993E-4,5.499999970E-4,3.038750030E-2
1.962342486E0,2.062499989E-3,-5.499999970E-4,3.135000169E-2
1.964843102E0,-1.374999993E-4,-5.499999970E-4,3.038750030E-2
1.967343718E0,9.624999948E-4,5.499999970E-4,3.038750030E-2
1.969844334E0,9.624999948E-4,1.649999991E-3,2.928750031E-2
1.972345029E0,2.062499989E-3,-1.649999991E-3,2.818750031E-2
1.974845570E0,-1.374999993E-4,-2.612499986E-3,2.708750032E-2
1.977346260E0,-1.099999994E-3,5.499999970E-4,2.708750032E-2
1.979846801E0,-1.374999993E-4,-5.499999970E-4,2.612499893E-2
1.982347486E0,2.062499989E-3,-5.499999970E-4,2.612499893E-2
1.984848026E0,9.624999948E-4,5.499999970E-4,2.612499893E-2
1.987348717E0,9.624999948E-4,1.649999991E-3,2.282499894E-2
1.989849257E0,9.624999948E-4,-5.499999970E-4,2.502499893E-2
1.992349947E0,-1.374999993E-4,-1.649999991E-3,2.392499894E-2
1.994850497E0,-1.374999993E-4,-5.499999970E-4,2.502499893E-2
1.997351187E0,-1.374999993E-4,5.499999970E-4,2.502499893E-2
1.999851728E0,-2.199999988E-3,-5.499999970E-4,2.392499894E-2
2.002352341E0,-1.374999993E-4,-1.649999991E-3,2.502499893E-2
2.004852977E0,-1.374999993E-4,-5.499999970E-4,2.392499894E-2
2.007353592E0,9.624999948E-4,-5.499999970E-4,2.502499893E-2
2.009854207E0,-1.374999993E-4,-1.649999991E-3,2.612499893E-2
2.012354823E0,2.062499989E-3,-5.499999970E-4,2.502499893E-2
2.014855428E0,2.062499989E-3,-5.499999970E-4,2.502499893E-2
2.017356043E0,9.624999948E-4,-5.499999970E-4,2.612499893E-2
2.019856659E0,9.624999948E-4,-5.499999970E-4,2.186249942E-2
2.022357275E0,-1.374999993E-4,1.649999991E-3,2.282499894E-2
2.024857891E0,9.624999948E-4,5.499999970E-4,2.502499893E-2
2.027358517E0,2.062499989E-3,5.499999970E-4,2.186249942E-2
2.029859132E0,9.624999948E-4,-1.649999991E-3,1.966249943E-2
2.032359747E0,9.624999948E-4,5.499999970E-4,1.869999990E-2
2.034860362E0,-1.374999993E-4,-5.499999970E-4,1.759999990E-2
2.037360981E0,9.624999948E-4,-5.499999970E-4,1.649999991E-2
2.039861596E0,2.062499989E-3,1.649999991E-3,1.649999991E-2
2.042362211E0,2.062499989E-3,2.612499986E-3,1.443750039E-2
2.044862827E0,9.624999948E-4,-1.649999991E-3,1.333750039E-2
2.047363443E0,9.624999948E-4,5.499999970E-4,1.113750041E-2
2.049864059E0,-1.099999994E-3,-5.499999970E-4,1.113750041E-2
2.052364675E0,-1.099999994E-3,-5.499999970E-4,9.074999951E-3
2.054865290E0,9.624999948E-4,-2.612499986E-3,7.974999957E-3
2.057365905E0,-1.374999993E-4,5.499999970E-4,6.874999963E-3
2.059866520E0,-1.374999993E-4,1.649999991E-3,4.812499974E-3
2.062367135E0,9.624999948E-4,-5.499999970E-4,4.812499974E-3
2.064867750E0,9.624999948E-4,-5.499999970E-4,5.499999970E-4
2.067368365E0,2.062499989E-3,5.499999970E-4,-5.499999970E-4
2.069868996E0,2.062499989E-3,1.649999991E-3,-2.612499986E-3
2.072369612E0,2.062499989E-3,-5.499999970E-4,-4.812499974E-3
2.074869998E0,2.062499989E-3,5.499999970E-4,-9.074999951E-3
2.077370842E0,9.624999948E-4,1.649999991E-3,-1.113750041E-2
2.079871256E0,-1.374999993E-4,5.499999970E-4,-1.429999992E-2
2.082372101E0,2.062499989E-3,-5.499999970E-4,-1.649999991E-2
2.084872487E0,-1.374999993E-4,5.499999970E-4,-1.759999990E-2
2.087373331E0,9.624999948E-4,5.499999970E-4,-2.282499894E-2
2.089873714E0,2.062499989E-3,5.499999970E-4,-2.282499894E-2
2.092374558E0,2.062499989E-3,-1.649999991E-3,-2.612499893E-2
2.094874945E0,9.624999948E-4,1.649999991E-3,-2.818750031E-2
2.097375558E0,-1.099999994E-3,5.499999970E-4,-3.038750030E-2
2.099876178E0,-1.374999993E-4,-5.499999970E-4,-3.135000169E-2
2.102376793E0,9.624999948E-4,5.499999970E-4,-3.451250121E-2
2.104877408E0,9.624999948E-4,5.499999970E-4,-3.671250120E-2
2.107378024E0,-1.374999993E-4,-5.499999970E-4,-3.561250120E-2
2.109878639E0,-1.099999994E-3,5.499999970E-4,-4.097500071E-2
2.112379255E0,2.062499989E-3,5.499999970E-4,-4.097500071E-2
2.114879871E0,2.062499989E-3,1.649999991E-3,-4.097500071E-2
2.117380487E0,2.062499989E-3,-5.499999970E-4,-4.413750023E-2
2.119881103E0,9.624999948E-4,1.649999991E-3,-4.523750022E-2
2.122381718E0,2.062499989E-3,2.612499986E-3,-4.633750021E-2
2.124882333E0,2.062499989E-3,5.499999970E-4,-4.633750021E-2
2.127382948E0,9.624999948E-4,5.499999970E-4,-4.633750021E-2
2.129883563E0,-1.374999993E-4,5.499999970E-4,-4.633750021E-2
2.132384178E0,9.624999948E-4,1.649999991E-3,-4.839999974E-2
2.134884793E0,9.624999948E-4,1.649999991E-3,-4.523750022E-2
2.137385408E0,2.062499989E-3,-5.499999970E-4,-4.729999974E-2
2.139886024E0,9.624999948E-4,2.612499986E-3,-4.413750023E-2
2.142386626E0,-1.374999993E-4,1.649999991E-3,-4.633750021E-2
2.144887242E0,9.624999948E-4,-1.649999991E-3,-4.413750023E-2
2.147387858E0,2.062499989E-3,-5.499999970E-4,-4.303750023E-2
2.149888473E0,3.162499983E-3,1.649999991E-3,-3.987500072E-2
2.152389093E0,9.624999948E-4,5.499999970E-4,-3.987500072E-2
2.154889708E0,2.062499989E-3,5.499999970E-4,-3.671250120E-2
2.157390323E0,-1.374999993E-4,1.649999991E-3,-3.561250120E-2
2.159890938E0,9.624999948E-4,2.612499986E-3,-3.355000168E-2
2.162391553E0,9.624999948E-4,-5.499999970E-4,-3.355000168E-2
2.164892159E0,9.624999948E-4,5.499999970E-4,-3.135000169E-2
2.167392775E0,-1.374999993E-4,1.649999991E-3,-2.928750031E-2
2.169893391E0,2.062499989E-3,2.612499986E-3,-2.612499893E-2
2.172394007E0,9.624999948E-4,5.499999970E-4,-2.392499894E-2
2.174894608E0,9.624999948E-4,1.649999991E-3,-2.282499894E-2
2.177395223E0,9.624999948E-4,1.649999991E-3,-1.966249943E-2
2.179895838E0,9.624999948E-4,5.499999970E-4,-1.759999990E-2
2.182396453E0,9.624999948E-4,-5.499999970E-4,-1.429999992E-2
2.184897072E0,9.624999948E-4,1.649999991E-3,-1.113750041E-2
2.187397687E0,2.062499989E-3,5.499999970E-4,-1.003750041E-2
2.189898228E0,2.062499989E-3,5.499999970E-4,-6.874999963E-3
2.192398918E0,9.624999948E-4,-5.499999970E-4,-6.874999963E-3
2.194899464E0,9.624999948E-4,2.612499986E-3,-2.612499986E-3
2.197400154E0,3.162499983E-3,-5.499999970E-4,-2.612499986E-3
2.199900694E0,9.624999948E-4,5.499999970E-4,-5.499999970E-4
2.202401385E0,-1.374999993E-4,-5.499999970E-4,1.649999991E-3
2.204901925E0,9.624999948E-4,5.499999970E-4,5.912499968E-3
2.207402557E0,9.624999948E-4,-5.499999970E-4,7.974999957E-3
2.209903173E0,-1.374999993E-4,-1.649999991E-3,9.074999951E-3
2.212403788E0,-1.099999994E-3,5.499999970E-4,1.017499994E-2
2.214904404E0,9.624999948E-4,1.649999991E-3,1.223750040E-2
2.217405019E0,9.624999948E-4,5.499999970E-4,1.223750040E-2
2.219905634E0,3.162499983E-3,-5.499999970E-4,1.539999992E-2
2.222406327E0,9.624999948E-4,1.649999991E-3,1.649999991E-2
2.224906867E0,9.624999948E-4,1.649999991E-3,1.869999990E-2
2.227407554E0,9.624999948E-4,-2.612499986E-3,2.076249942E-2
2.229908094E0,9.624999948E-4,-5.499999970E-4,2.186249942E-2
2.232408784E0,9.624999948E-4,5.499999970E-4,2.392499894E-2
2.234909325E0,-1.374999993E-4,-5.499999970E-4,2.392499894E-2
2.237409933E0,9.624999948E-4,-1.649999991E-3,2.818750031E-2
2.239910549E0,-1.099999994E-3,-5.499999970E-4,2.928750031E-2
2.242411164E0,9.624999948E-4,-5.499999970E-4,3.135000169E-2
2.244911779E0,2.062499989E-3,-1.649999991E-3,3.355000168E-2
2.247412390E0,-1.374999993E-4,-2.612499986E-3,3.464999795E-2
2.249913005E0,-1.374999993E-4,1.649999991E-3,3.464999795E-2
2.252413620E0,-1.099999994E-3,-1.649999991E-3,3.781250119E-2
2.254914236E0,-1.374999993E-4,-2.612499986E-3,4.097500071E-2
2.257414847E0,2.062499989E-3,-5.499999970E-4,4.097500071E-2
2.259915463E0,-1.374999993E-4,5.499999970E-4,4.097500071E-2
2.262416079E0,9.624999948E-4,-5.499999970E-4,4.413750023E-2
2.264916694E0,-1.374999993E-4,-2.612499986E-3,4.413750023E-2
2.267417309E0,-1.374999993E-4,-1.649999991E-3,4.317500070E-2
2.269917934E0,9.624999948E-4,-1.649999991E-3,4.523750022E-2
2.272418549E0,9.624999948E-4,-1.649999991E-3,4.523750022E-2
2.274919164E0,9.624999948E-4,-5.499999970E-4,4.523750022E-2
2.277419779E0,9.624999948E-4,-5.499999970E-4,4.743750021E-2
2.279920395E0,9.624999948E-4,-5.499999970E-4,4.633750021E-2
2.282421011E0,2.062499989E-3,-1.649999991E-3,4.839999974E-2
2.284921627E0,2.062499989E-3,-1.649999991E-3,4.743750021E-2
2.287422243E0,-1.374999993E-4,1.649999991E-3,4.839999974E-2
2.289922853E0,-1.374999993E-4,-2.612499986E-3,4.839999974E-2
2.292423468E0,-1.099999994E-3,-1.649999991E-3,4.523750022E-2
2.294924083E0,-1.099999994E-3,-1.649999991E-3,4.523750022E-2
2.297424698E0,-1.374999993E-4,-1.649999991E-3,4.523750022E-2
2.299925084E0,-1.374999993E-4,-5.499999970E-4,4.317500070E-2
2.302425942E0,-1.374999993E-4,-2.612499986E-3,4.207500070E-2
2.304926560E0,-1.374999993E-4,1.649999991E-3,3.781250119E-2
2.307427175E0,2.062499989E-3,-5.499999970E-4,3.781250119E-2
2.309927790E0,-1.099999994E-3,-1.649999991E-3,3.464999795E-2
2.312428411E0,-1.374999993E-4,5.499999970E-4,3.355000168E-2
2.314929026E0,-1.374999993E-4,-5.499999970E-4,3.244999796E-2
2.317429642E0,-1.099999994E-3,-5.499999970E-4,2.928750031E-2
2.319930257E0,-1.374999993E-4,-5.499999970E-4,2.612499893E-2
2.322430862E0,9.624999948E-4,-5.499999970E-4,2.612499893E-2
2.324931477E0,-1.374999993E-4,1.649999991E-3,2.502499893E-2
2.327432092E0,9.624999948E-4,-1.649999991E-3,2.282499894E-2
2.329932707E0,2.062499989E-3,-5.499999970E-4,1.869999990E-2
2.332433313E0,9.624999948E-4,1.649999991E-3,1.966249943E-2
2.334933928E0,9.624999948E-4,5.499999970E-4,1.649999991E-2
2.337434544E0,2.062499989E-3,-2.612499986E-3,1.649999991E-2
2.339934930E0,9.624999948E-4,-5.499999970E-4,1.443750039E-2
2.342435784E0,-1.099999994E-3,-1.649999991E-3,1.333750039E-2
2.344936170E0,-1.099999994E-3,-5.499999970E-4,1.017499994E-2
2.347436784E0,-1.099999994E-3,-1.649999991E-3,1.017499994E-2
2.349937399E0,-1.374999993E-4,5.499999970E-4,5.912499968E-3
2.352438014E0,2.062499989E-3,-5.499999970E-4,3.712499980E-3
2.354938635E0,9.624999948E-4,-1.649999991E-3,3.712499980E-3
2.357439250E0,-1.374999993E-4,-5.499999970E-4,1.649999991E-3
2.359939866E0,9.624999948E-4,1.649999991E-3,-2.612499986E-3
2.362440481E0,-1.099999994E-3,5.499999970E-4,-2.612499986E-3
2.364941091E0,-1.374999993E-4,-5.499999970E-4,-4.812499974E-3
2.367441707E0,-1.374999993E-4,5.499999970E-4,-3.712499980E-3
2.369942323E0,-1.374999993E-4,-5.499999970E-4,-4.812499974E-3
2.372442939E0,9.624999948E-4,1.649999991E-3,-6.874999963E-3
2.374943546E0,3.162499983E-3,-5.499999970E-4,-6.874999963E-3
2.377444161E0,9.624999948E-4,-5.499999970E-4,-9.074999951E-3
2.379944776E0,-1.374999993E-4,5.499999970E-4,-1.003750041E-2
2.382445391E0,9.624999948E-4,-5.499999970E-4,-1.003750041E-2
2.384946006E0,9.624999948E-4,5.499999970E-4,-1.113750041E-2
2.387446621E0,2.062499989E-3,2.612499986E-3,-1.333750039E-2
2.389947236E0,2.062499989E-3,5.499999970E-4,-1.333750039E-2
2.392447852E0,2.062499989E-3,-1.649999991E-3,-1.429999992E-2
2.394948468E0,-1.374999993E-4,-5.499999970E-4,-1.649999991E-2
2.397449093E0,-1.099999994E-3,1.649999991E-3,-1.649999991E-2
2.399949709E0,9.624999948E-4,-1.649999991E-3,-1.856249943E-2
2.402450324E0,-1.374999993E-4,1.649999991E-3,-2.076249942E-2
2.404950939E0,9.624999948E-4,5.499999970E-4,-2.076249942E-2
2.407451559E0,2.062499989E-3,1.649999991E-3,-2.282499894E-2
2.409952174E0,-1.374999993E-4,1.649999991E-3,-2.392499894E-2
2.412452789E0,-1.374999993E-4,1.649999991E-3,-2.612499893E-2
2.414953404E0,9.624999948E-4,2.612499986E-3,-2.612499893E-2
2.417454009E0,2.062499989E-3,-5.499999970E-4,-2.612499893E-2
2.419954625E0,9.624999948E-4,5.499999970E-4,-2.612499893E-2
2.422455241E0,2.062499989E-3,5.499999970E-4,-2.818750031E-2
2.424955857E0,9.624999948E-4,3.712499980E-3,-2.818750031E-2
2.427456473E0,2.062499989E-3,5.499999970E-4,-2.818750031E-2
2.429957012E0,2.062499989E-3,-5.499999970E-4,-3.038750030E-2
2.432457702E0,9.624999948E-4,1.649999991E-3,-2.818750031E-2
2.434958242E0,9.624999948E-4,1.649999991E-3,-2.818750031E-2
2.437458933E0,9.624999948E-4,1.649999991E-3,-3.038750030E-2
2.439959448E0,2.062499989E-3,-5.499999970E-4,-3.038750030E-2
2.442460138E0,-1.374999993E-4,2.612499986E-3,-3.038750030E-2
2.444960679E0,9.624999948E-4,1.649999991E-3,-3.135000169E-2
2.447461369E0,-1.374999993E-4,-5.499999970E-4,-2.928750031E-2
2.449961910E0,-1.374999993E-4,1.649999991E-3,-2.928750031E-2
2.452462600E0,9.624999948E-4,1.649999991E-3,-2.818750031E-2
2.454963140E0,9.624999948E-4,5.499999970E-4,-2.818750031E-2
2.457463831E0,9.624999948E-4,-5.499999970E-4,-2.818750031E-2
2.459964386E0,-1.374999993E-4,1.649999991E-3,-2.612499893E-2
2.462465077E0,2.062499989E-3,1.649999991E-3,-2.708750032E-2
2.464965617E0,9.624999948E-4,5.499999970E-4,-2.282499894E-2
2.467466307E0,-1.374999993E-4,5.499999970E-4,-2.282499894E-2
2.469966848E0,2.062499989E-3,5.499999970E-4,-2.282499894E-2
2.472467528E0,9.624999948E-4,1.649999991E-3,-1.966249943E-2
2.474968069E0,9.624999948E-4,5.499999970E-4,-2.076249942E-2
2.477468759E0,9.624999948E-4,1.649999991E-3,-1.759999990E-2
2.479969299E0,2.062499989E-3,5.499999970E-4,-1.649999991E-2
2.482469937E0,2.062499989E-3,1.649999991E-3,-1.223750040E-2
2.484970552E0,9.624999948E-4,-1.649999991E-3,-1.333750039E-2
2.487471168E0,-1.374999993E-4,1.649999991E-3,-1.113750041E-2
2.489971783E0,9.624999948E-4,1.649999991E-3,-1.113750041E-2
2.492472403E0,9.624999948E-4,-5.499999970E-4,-9.074999951E-3
2.494973019E0,9.624999948E-4,5.499999970E-4,-9.074999951E-3
2.497473635E0,9.624999948E-4,1.649999991E-3,-7.974999957E-3
2.499974251E0,-1.374999993E-4,5.499999970E-4,-6.874999963E-3
2.502474867E0,9.624999948E-4,5.499999970E-4,-6.874999963E-3
2.504975482E0,-1.374999993E-4,1.649999991E-3,-6.874999963E-3
2.507476097E0,9.624999948E-4,5.499999970E-4,-4.812499974E-3
2.509976712E0,-1.374999993E-4,5.499999970E-4,-5.774999969E-3
2.512477327E0,9.624999948E-4,5.499999970E-4,-4.812499974E-3
2.514977937E0,9.624999948E-4,5.499999970E-4,-4.812499974E-3
2.517478552E0,9.624999948E-4,5.499999970E-4,-2.612499986E-3
2.519979168E0,2.062499989E-3,1.649999991E-3,-2.612499986E-3
2.522479784E0,9.624999948E-4,5.499999970E-4,-2.612499986E-3
2.524980385E0,9.624999948E-4,1.649999991E-3,-2.612499986E-3
2.527481001E0,2.062499989E-3,5.499999970E-4,-2.612499986E-3
2.529981616E0,9.624999948E-4,-1.649999991E-3,-2.612499986E-3
2.532482231E0,9.624999948E-4,1.649999991E-3,-5.499999970E-4
2.534982846E0,2.062499989E-3,1.649999991E-3,-1.649999991E-3
2.537483461E0,9.624999948E-4,-5.499999970E-4,1.649999991E-3
2.539984076E0,9.624999948E-4,5.499999970E-4,5.499999970E-4
2.542484691E0,9.624999948E-4,5.499999970E-4,5.499999970E-4
2.544985292E0,9.624999948E-4,-1.649999991E-3,5.499999970E-4
2.547485908E0,-1.099999994E-3,-5.499999970E-4,4.812499974E-3
2.549986295E0,9.624999948E-4,-5.499999970E-4,3.712499980E-3
2.552487139E0,9.624999948E-4,-5.499999970E-4,4.812499974E-3
2.554987756E0,9.624999948E-4,-1.649999991E-3,6.874999963E-3
2.557488376E0,-1.374999993E-4,-2.612499986E-3,9.074999951E-3
2.559988992E0,9.624999948E-4,5.499999970E-4,1.113750041E-2
2.562489607E0,-1.374999993E-4,-1.649999991E-3,1.113750041E-2
2.564990223E0,-1.374999993E-4,-5.499999970E-4,1.333750039E-2
2.567490838E0,9.624999948E-4,-5.499999970E-4,1.443750039E-2
2.569991453E0,-1.099999994E-3,5.499999970E-4,1.649999991E-2
2.572492068E0,-1.374999993E-4,5.499999970E-4,1.539999992E-2
2.574992683E0,9.624999948E-4,-5.499999970E-4,1.759999990E-2
2.577493054E0,-1.374999993E-4,-5.499999970E-4,1.869999990E-2
2.579993667E0,2.062499989E-3,1.649999991E-3,1.869999990E-2
2.582494283E0,2.062499989E-3,-5.499999970E-4,2.076249942E-2
2.584994898E0,9.624999948E-4,-5.499999970E-4,2.076249942E-2
2.587495513E0,-1.374999993E-4,1.649999991E-3,2.076249942E-2
2.589996129E0,2.062499989E-3,1.649999991E-3,2.076249942E-2
2.592496744E0,-1.374999993E-4,-1.649999991E-3,1.869999990E-2
2.594997360E0,-1.374999993E-4,5.499999970E-4,1.869999990E-2
2.597497986E0,-1.099999994E-3,-5.499999970E-4,1.966249943E-2
2.599998602E0,9.624999948E-4,-1.649999991E-3,1.759999990E-2
2.602499218E0,-1.374999993E-4,-1.649999991E-3,1.759999990E-2
2.604999833E0,9.624999948E-4,5.499999970E-4,1.539999992E-2
2.607500448E0,-1.099999994E-3,5.499999970E-4,1.539999992E-2
2.610001073E0,-1.374999993E-4,-5.499999970E-4,1.443750039E-2
2.612501688E0,9.624999948E-4,-1.649999991E-3,1.539999992E-2
2.615002303E0,9.624999948E-4,5.499999970E-4,1.223750040E-2
2.617502918E0,9.624999948E-4,5.499999970E-4,1.223750040E-2
2.620003548E0,9.624999948E-4,-1.649999991E-3,9.074999951E-3
2.622504164E0,2.062499989E-3,-5.499999970E-4,7.974999957E-3
2.625004780E0,9.624999948E-4,5.499999970E-4,6.874999963E-3
2.627505396E0,9.624999948E-4,1.649999991E-3,1.649999991E-3
2.630006026E0,2.062499989E-3,-5.499999970E-4,3.712499980E-3
2.632506641E0,9.624999948E-4,5.499999970E-4,1.649999991E-3
2.635007256E0,9.624999948E-4,-5.499999970E-4,-1.649999991E-3
2.637507871E0,-1.374999993E-4,-1.649999991E-3,-2.612499986E-3
2.640008486E0,9.624999948E-4,-1.649999991E-3,-4.812499974E-3
2.642509101E0,-1.374999993E-4,5.499999970E-4,-4.812499974E-3
2.645009716E0,2.062499989E-3,-1.649999991E-3,-4.812499974E-3
2.647510332E0,9.624999948E-4,-5.499999970E-4,-6.874999963E-3
2.650010933E0,-1.099999994E-3,-5.499999970E-4,-7.974999957E-3
2.652511549E0,-1.374999993E-4,5.499999970E-4,-6.874999963E-3
2.655012165E0,-1.374999993E-4,-5.499999970E-4,-5.774999969E-3
2.657512780E0,9.624999948E-4,-5.499999970E-4,-9.074999951E-3
2.660013391E0,9.624999948E-4,5.499999970E-4,-7.974999957E-3
2.662514006E0,9.624999948E-4,-5.499999970E-4,-7.974999957E-3
2.665014621E0,9.624999948E-4,5.499999970E-4,-7.974999957E-3
2.667515161E0,9.624999948E-4,-1.649999991E-3,-6.874999963E-3
2.670015759E0,9.624999948E-4,5.499999970E-4,-7.974999957E-3
2.672516375E0,9.624999948E-4,5.499999970E-4,-9.074999951E-3
2.675016990E0,9.624999948E-4,-5.499999970E-4,-1.003750041E-2
2.677517606E0,9.624999948E-4,5.499999970E-4,-1.003750041E-2
2.680018221E0,9.624999948E-4,5.499999970E-4,-9.074999951E-3
2.682518831E0,3.162499983E-3,5.499999970E-4,-9.074999951E-3
2.685019447E0,-1.374999993E-4,1.649999991E-3,-1.333750039E-2
2.687520063E0,2.062499989E-3,1.649999991E-3,-1.003750041E-2
2.690020679E0,9.624999948E-4,-5.499999970E-4,-1.113750041E-2
2.692521276E0,-1.374999993E-4,-5.499999970E-4,-1.003750041E-2
2.695021891E0,-1.374999993E-4,1.649999991E-3,-1.113750041E-2
2.697522506E0,-1.374999993E-4,1.649999991E-3,-1.113750041E-2
2.700023121E0,9.624999948E-4,1.649999991E-3,-1.003750041E-2
2.702523726E0,-1.374999993E-4,-5.499999970E-4,-1.003750041E-2
2.705024341E0,-1.099999994E-3,-5.499999970E-4,-9.074999951E-3
2.707524956E0,9.624999948E-4,5.499999970E-4,-9.074999951E-3
2.710025572E0,9.624999948E-4,-1.649999991E-3,-1.003750041E-2
2.712526188E0,9.624999948E-4,1.649999991E-3,-9.074999951E-3
2.715026814E0,-1.374999993E-4,5.499999970E-4,-7.974999957E-3
2.717527430E0,9.624999948E-4,5.499999970E-4,-1.113750041E-2
2.720028045E0,9.624999948E-4,-5.499999970E-4,-9.074999951E-3
2.722528660E0,2.062499989E-3,1.649999991E-3,-1.113750041E-2
2.725029275E0,-1.374999993E-4,5.499999970E-4,-1.003750041E-2
2.727529890E0,2.062499989E-3,5.499999970E-4,-1.003750041E-2
2.730030505E0,9.624999948E-4,5.499999970E-4,-1.003750041E-2
2.732531120E0,9.624999948E-4,5.499999970E-4,-1.003750041E-2
2.735031735E0,9.624999948E-4,5.499999970E-4,-1.003750041E-2
2.737532351E0,9.624999948E-4,2.612499986E-3,-1.003750041E-2
2.740032967E0,-1.374999993E-4,-5.499999970E-4,-9.074999951E-3
2.742533583E0,-1.374999993E-4,-5.499999970E-4,-7.974999957E-3
2.745034199E0,2.062499989E-3,5.499999970E-4,-6.874999963E-3
2.747534809E0,-1.374999993E-4,5.499999970E-4,-6.874999963E-3
2.750035424E0,-1.099999994E-3,-1.649999991E-3,-4.812499974E-3
2.752536039E0,-1.099999994E-3,5.499999970E-4,-5.774999969E-3
2.755036654E0,-1.374999993E-4,-5.499999970E-4,-3.712499980E-3
2.757537040E0,-1.374999993E-4,5.499999970E-4,-2.612499986E-3
2.760037654E0,-1.374999993E-4,-5.499999970E-4,-1.649999991E-3
2.762538269E0,9.624999948E-4,1.649999991E-3,1.649999991E-3
2.765038884E0,-1.374999993E-4,-1.649999991E-3,5.499999970E-4
2.767539500E0,9.624999948E-4,-1.649999991E-3,2.612499986E-3
2.770040105E0,2.062499989E-3,5.499999970E-4,5.499999970E-4
2.772540721E0,9.624999948E-4,1.649999991E-3,2.612499986E-3
2.775041336E0,2.062499989E-3,5.499999970E-4,2.612499986E-3
2.777541951E0,2.062499989E-3,5.499999970E-4,2.612499986E-3
2.780042563E0,9.624999948E-4,5.499999970E-4,2.612499986E-3
2.782543179E0,3.162499983E-3,-5.499999970E-4,4.812499974E-3
2.785043795E0,2.062499989E-3,5.499999970E-4,3.712499980E-3
2.787544411E0,9.624999948E-4,1.649999991E-3,4.812499974E-3
2.790045011E0,9.624999948E-4,5.499999970E-4,4.812499974E-3
2.792545626E0,-1.099999994E-3,5.499999970E-4,4.812499974E-3
2.795046241E0,9.624999948E-4,5.499999970E-4,5.912499968E-3
2.797546856E0,-1.374999993E-4,-5.499999970E-4,6.874999963E-3
2.800047471E0,-1.374999993E-4,5.499999970E-4,6.874999963E-3
2.802548062E0,-1.099999994E-3,5.499999970E-4,6.874999963E-3
2.805048678E0,9.624999948E-4,-5.499999970E-4,7.974999957E-3
2.807549294E0,9.624999948E-4,-5.499999970E-4,7.974999957E-3
2.810049910E0,9.624999948E-4,5.499999970E-4,4.812499974E-3
2.812550526E0,9.624999948E-4,5.499999970E-4,5.912499968E-3
2.815051141E0,9.624999948E-4,-1.649999991E-3,5.912499968E-3
2.817551756E0,-1.374999993E-4,-5.499999970E-4,4.812499974E-3
2.820052371E0,9.624999948E-4,-5.499999970E-4,2.612499986E-3
2.822552986E0,9.624999948E-4,-5.499999970E-4,1.649999991E-3
2.825053601E0,-1.374999993E-4,5.499999970E-4,2.612499986E-3
2.827554216E0,9.624999948E-4,5.499999970E-4,-1.649999991E-3
2.830054832E0,3.162499983E-3,5.499999970E-4,-1.649999991E-3
2.832555448E0,9.624999948E-4,5.499999970E-4,-3.712499980E-3
2.835056064E0,9.624999948E-4,-5.499999970E-4,-2.612499986E-3
2.837556680E0,-1.374999993E-4,1.649999991E-3,-4.812499974E-3
2.840057295E0,9.624999948E-4,1.649999991E-3,-5.774999969E-3
2.842557834E0,-1.374999993E-4,-5.499999970E-4,-6.874999963E-3
2.845058548E0,-1.374999993E-4,5.499999970E-4,-7.974999957E-3
2.847559088E0,-1.099999994E-3,-1.649999991E-3,-7.974999957E-3
2.850059702E0,-1.374999993E-4,5.499999970E-4,-6.874999963E-3
2.852560317E0,9.624999948E-4,-1.649999991E-3,-5.774999969E-3
2.855060948E0,9.624999948E-4,5.499999970E-4,-9.074999951E-3
2.857561563E0,-1.374999993E-4,5.499999970E-4,-1.003750041E-2
2.860062178E0,9.624999948E-4,5.499999970E-4,-1.113750041E-2
2.862562794E0,9.624999948E-4,-1.649999991E-3,-1.223750040E-2
2.865063429E0,-1.099999994E-3,5.499999970E-4,-1.223750040E-2
2.867564045E0,9.624999948E-4,-5.499999970E-4,-1.429999992E-2
2.870064661E0,-1.374999993E-4,-5.499999970E-4,-1.539999992E-2
2.872565276E0,-1.099999994E-3,-5.499999970E-4,-1.429999992E-2
2.875065891E0,9.624999948E-4,5.499999970E-4,-1.429999992E-2
2.877566506E0,-1.374999993E-4,5.499999970E-4,-1.539999992E-2
2.880067121E0,9.624999948E-4,5.499999970E-4,-1.429999992E-2
2.882567736E0,9.624999948E-4,5.499999970E-4,-1.649999991E-2
2.885068356E0,9.624999948E-4,1.649999991E-3,-1.333750039E-2
2.887568972E0,2.062499989E-3,1.649999991E-3,-1.223750040E-2
2.890069588E0,9.624999948E-4,5.499999970E-4,-1.113750041E-2
2.892570204E0,9.624999948E-4,5.499999970E-4,-1.113750041E-2
2.895070820E0,2.062499989E-3,5.499999970E-4,-1.113750041E-2
2.897571430E0,-1.374999993E-4,-2.612499986E-3,-7.974999957E-3
2.900072045E0,9.624999948E-4,-5.499999970E-4,-9.074999951E-3
2.902572660E0,-1.374999993E-4,5.499999970E-4,-6.874999963E-3
2.905073275E0,-1.374999993E-4,-5.499999970E-4,-6.874999963E-3
2.907573890E0,9.624999948E-4,-5.499999970E-4,-4.812499974E-3
2.910074505E0,9.624999948E-4,-5.499999970E-4,-6.874999963E-3
2.912575121E0,2.062499989E-3,5.499999970E-4,-6.874999963E-3
2.915075737E0,-1.374999993E-4,5.499999970E-4,-5.774999969E-3
2.917576358E0,-1.374999993E-4,5.499999970E-4,-5.774999969E-3
2.920076974E0,-1.374999993E-4,5.499999970E-4,-5.774999969E-3
2.922577589E0,9.624999948E-4,1.649999991E-3,-4.812499974E-3
2.925078204E0,9.624999948E-4,-5.499999970E-4,-6.874999963E-3
2.927578833E0,2.062499989E-3,5.499999970E-4,-5.774999969E-3
2.930079448E0,9.624999948E-4,5.499999970E-4,-5.774999969E-3
2.932580063E0,9.624999948E-4,-5.499999970E-4,-6.874999963E-3
2.935080678E0,2.062499989E-3,-5.499999970E-4,-5.774999969E-3
2.937581293E0,9.624999948E-4,1.649999991E-3,-4.812499974E-3
2.940081904E0,-1.374999993E-4,-5.499999970E-4,-1.649999991E-3
2.942582520E0,9.624999948E-4,-5.499999970E-4,-4.812499974E-3
2.945082906E0,2.062499989E-3,5.499999970E-4,-3.712499980E-3
2.947583750E0,9.624999948E-4,5.499999970E-4,-2.612499986E-3
2.950084137E0,-1.374999993E-4,-5.499999970E-4,-5.499999970E-4
2.952585001E0,-1.374999993E-4,-5.499999970E-4,-2.612499986E-3
2.955085387E0,-1.374999993E-4,5.499999970E-4,-5.499999970E-4
2.957586001E0,-1.374999993E-4,5.499999970E-4,1.649999991E-3
2.960086616E0,9.624999948E-4,-2.612499986E-3,1.649999991E-3
2.962587255E0,2.062499989E-3,-1.649999991E-3,1.649999991E-3
2.965087870E0,-1.099999994E-3,5.499999970E-4,2.612499986E-3
2.967588485E0,9.624999948E-4,5.499999970E-4,1.649999991E-3
2.970089101E0,-1.374999993E-4,-1.649999991E-3,1.649999991E-3
2.972589726E0,-1.374999993E-4,-5.499999970E-4,5.912499968E-3
2.975090572E0,-1.374999993E-4,-5.499999970E-4,6.874999963E-3
2.977590959E0,9.624999948E-4,-5.499999970E-4,1.017499994E-2
2.980091803E0,9.624999948E-4,-1.649999991E-3,1.223750040E-2
2.982592185E0,-1.374999993E-4,1.649999991E-3,1.333750039E-2
2.985093029E0,-1.374999993E-4,5.499999970E-4,1.539999992E-2
2.987593415E0,-1.099999994E-3,-5.499999970E-4,1.649999991E-2
2.990094029E0,-1.099999994E-3,-5.499999970E-4,1.759999990E-2
2.992594620E0,-1.099999994E-3,-5.499999970E-4,1.869999990E-2
2.995095236E0,9.624999948E-4,-5.499999970E-4,2.076249942E-2
2.997595851E0,-1.099999994E-3,-5.499999970E-4,2.282499894E-2
3.000096466E0,-1.374999993E-4,-5.499999970E-4,2.186249942E-2
3.002597077E0,-1.374999993E-4,1.649999991E-3,2.186249942E-2
3.005097692E0,9.624999948E-4,-1.649999991E-3,2.186249942E-2
3.007598308E0,-1.374999993E-4,-1.649999991E-3,1.966249943E-2
3.010098924E0,-1.374999993E-4,-5.499999970E-4,1.966249943E-2
3.012599540E0,-1.374999993E-4,5.499999970E-4,1.966249943E-2
3.015100142E0,-1.374999993E-4,-2.612499986E-3,1.759999990E-2
3.017600757E0,-1.374999993E-4,-2.612499986E-3,1.443750039E-2
3.020101372E0,9.624999948E-4,-5.499999970E-4,1.223750040E-2
3.022601987E0,9.624999948E-4,1.649999991E-3,1.223750040E-2
3.025102597E0,-1.374999993E-4,-5.499999970E-4,7.974999957E-3
3.027603212E0,-1.374999993E-4,-5.499999970E-4,9.074999951E-3
3.030103827E0,2.062499989E-3,5.499999970E-4,6.874999963E-3
3.032604443E0,-1.374999993E-4,5.499999970E-4,4.812499974E-3
3.035105054E0,9.624999948E-4,-5.499999970E-4,4.812499974E-3
3.037605670E0,-2.199999988E-3,5.499999970E-4,2.612499986E-3
3.040106286E0,9.624999948E-4,1.649999991E-3,1.649999991E-3
3.042606901E0,-1.374999993E-4,5.499999970E-4,-1.649999991E-3
3.045107516E0,-1.374999993E-4,5.499999970E-4,-3.712499980E-3
3.047608145E0,-1.374999993E-4,1.649999991E-3,-2.612499986E-3
3.050108760E0,9.624999948E-4,5.499999970E-4,-4.812499974E-3
3.052609375E0,-1.374999993E-4,-5.499999970E-4,-6.874999963E-3
3.055109990E0,9.624999948E-4,5.499999970E-4,-9.074999951E-3
3.057610591E0,9.624999948E-4,-5.499999970E-4,-1.113750041E-2
3.060111207E0,-1.374999993E-4,-5.499999970E-4,-1.113750041E-2
3.062611823E0,-1.099999994E-3,-5.499999970E-4,-1.113750041E-2
3.065112439E0,-1.374999993E-4,5.499999970E-4,-1.333750039E-2
3.067613069E0,-1.374999993E-4,-5.499999970E-4,-1.333750039E-2
3.070113684E0,-1.099999994E-3,-1.649999991E-3,-1.429999992E-2
3.072614299E0,9.624999948E-4,-5.499999970E-4,-1.539999992E-2
3.075114914E0,-1.374999993E-4,1.649999991E-3,-1.539999992E-2
3.077615515E0,2.062499989E-3,1.649999991E-3,-1.649999991E-2
3.080116130E0,2.062499989E-3,5.499999970E-4,-1.649999991E-2
3.082616670E0,-1.374999993E-4,1.649999991E-3,-1.539999992E-2
3.085117361E0,2.062499989E-3,5.499999970E-4,-1.539999992E-2
3.087617910E0,9.624999948E-4,-5.499999970E-4,-1.333750039E-2
3.090118600E0,9.624999948E-4,-5.499999970E-4,-1.539999992E-2
3.092619141E0,9.624999948E-4,5.499999970E-4,-1.759999990E-2
3.095119831E0,9.624999948E-4,1.649999991E-3,-1.856249943E-2
3.097620353E0,-1.374999993E-4,5.499999970E-4,-1.759999990E-2
3.100120966E0,-1.099999994E-3,5.499999970E-4,-1.759999990E-2
3.102621582E0,-1.099999994E-3,1.649999991E-3,-1.966249943E-2
3.105122197E0,9.624999948E-4,-1.649999991E-3,-1.856249943E-2
3.107622812E0,9.624999948E-4,-5.499999970E-4,-2.186249942E-2
3.110123428E0,9.624999948E-4,1.649999991E-3,-2.282499894E-2
3.112624043E0,9.624999948E-4,5.499999970E-4,-1.856249943E-2
3.115124658E0,-1.374999993E-4,5.499999970E-4,-2.076249942E-2
3.117625274E0,9.624999948E-4,5.499999970E-4,-1.966249943E-2
3.120125871E0,-1.374999993E-4,2.612499986E-3,-1.966249943E-2
3.122626487E0,9.624999948E-4,-5.499999970E-4,-1.856249943E-2
3.125127103E0,2.062499989E-3,-5.499999970E-4,-1.759999990E-2
3.127627718E0,9.624999948E-4,-5.499999970E-4,-1.759999990E-2
3.130128314E0,-1.374999993E-4,5.499999970E-4,-1.333750039E-2
3.132628929E0,9.624999948E-4,5.499999970E-4,-1.223750040E-2
3.135129544E0,9.624999948E-4,5.499999970E-4,-1.003750041E-2
3.137630159E0,9.624999948E-4,1.649999991E-3,-9.074999951E-3
3.140130769E0,9.624999948E-4,1.649999991E-3,-5.774999969E-3
3.142631385E0,2.062499989E-3,-5.499999970E-4,-4.812499974E-3
3.145132001E0,-1.374999993E-4,5.499999970E-4,-2.612499986E-3
3.147632617E0,-1.374999993E-4,5.499999970E-4,5.499999970E-4
3.150133233E0,-1.374999993E-4,5.499999970E-4,-5.499999970E-4
3.152633867E0,-1.374999993E-4,-1.649999991E-3,1.649999991E-3
3.155134482E0,-1.374999993E-4,-5.499999970E-4,2.612499986E-3
3.157635097E0,-1.374999993E-4,-5.499999970E-4,2.612499986E-3
3.160135712E0,2.062499989E-3,-2.612499986E-3,4.812499974E-3
3.162636370E0,9.624999948E-4,-5.499999970E-4,9.074999951E-3
3.165136985E0,9.624999948E-4,-5.499999970E-4,7.974999957E-3
3.167637601E0,-1.374999993E-4,-5.499999970E-4,9.074999951E-3
3.170138217E0,-1.374999993E-4,-2.612499986E-3,9.074999951E-3
3.172638613E0,9.624999948E-4,-5.499999970E-4,1.223750040E-2
3.175139457E0,9.624999948E-4,-5.499999970E-4,1.333750039E-2
3.177640074E0,9.624999948E-4,-1.649999991E-3,1.333750039E-2
3.180140690E0,9.624999948E-4,-5.499999970E-4,1.333750039E-2
3.182641107E0,-1.374999993E-4,-5.499999970E-4,1.539999992E-2
3.185141721E0,2.062499989E-3,5.499999970E-4,1.443750039E-2
3.187642336E0,-1.374999993E-4,-5.499999970E-4,1.649999991E-2
3.190142951E0,-1.374999993E-4,-1.649999991E-3,1.649999991E-2
3.192643567E0,-1.374999993E-4,1.649999991E-3,1.539999992E-2
3.195144177E0,9.624999948E-4,5.499999970E-4,1.443750039E-2
3.197644793E0,9.624999948E-4,-1.649999991E-3,1.223750040E-2
3.200145408E0,-1.374999993E-4,-1.649999991E-3,1.333750039E-2
3.202646023E0,-1.374999993E-4,5.499999970E-4,1.017499994E-2
3.205146644E0,-1.099999994E-3,-1.649999991E-3,1.113750041E-2
3.207647260E0,-1.374999993E-4,-1.649999991E-3,1.113750041E-2
3.210147876E0,-1.374999993E-4,-5.499999970E-4,9.074999951E-3
3.212648492E0,9.624999948E-4,-5.499999970E-4,1.017499994E-2
3.215149102E0,9.624999948E-4,-1.649999991E-3,1.017499994E-2
3.217649717E0,-1.374999993E-4,-5.499999970E-4,9.074999951E-3
3.220150332E0,9.624999948E-4,1.649999991E-3,1.017499994E-2
3.222650947E0,9.624999948E-4,-1.649999991E-3,1.113750041E-2
3.225151562E0,-1.374999993E-4,-5.499999970E-4,1.017499994E-2
3.227652182E0,9.624999948E-4,-5.499999970E-4,9.074999951E-3
3.230152798E0,-1.374999993E-4,-5.499999970E-4,1.017499994E-2
3.232653414E0,9.624999948E-4,5.499999970E-4,1.223750040E-2
3.235154030E0,9.624999948E-4,-5.499999970E-4,1.223750040E-2
3.237654622E0,2.062499989E-3,-5.499999970E-4,1.017499994E-2
3.240155237E0,-1.374999993E-4,5.499999970E-4,7.974999957E-3
3.242655852E0,-1.374999993E-4,-5.499999970E-4,1.113750041E-2
3.245156467E0,-1.374999993E-4,5.499999970E-4,1.017499994E-2
3.247657096E0,9.624999948E-4,1.649999991E-3,1.017499994E-2
3.250157711E0,-1.374999993E-4,-5.499999970E-4,9.074999951E-3
3.252658326E0,9.624999948E-4,-1.649999991E-3,9.074999951E-3
3.255158867E0,-1.374999993E-4,5.499999970E-4,9.074999951E-3
3.257659480E0,9.624999948E-4,-1.649999991E-3,9.074999951E-3
3.260160095E0,9.624999948E-4,-5.499999970E-4,1.223750040E-2
3.262660711E0,2.062499989E-3,-1.649999991E-3,1.223750040E-2
3.265161326E0,9.624999948E-4,-5.499999970E-4,1.443750039E-2
3.267661942E0,-1.374999993E-4,-5.499999970E-4,1.539999992E-2
3.270162576E0,-1.374999993E-4,-5.499999970E-4,1.649999991E-2
3.272663191E0,9.624999948E-4,-5.499999970E-4,1.869999990E-2
3.275163807E0,9.624999948E-4,5.499999970E-4,1.759999990E-2
3.277664423E0,9.624999948E-4,-1.649999991E-3,2.186249942E-2
3.280165058E0,9.624999948E-4,-5.499999970E-4,2.186249942E-2
3.282665674E0,-1.374999993E-4,-5.499999970E-4,2.076249942E-2
3.285166289E0,9.624999948E-4,-5.499999970E-4,2.076249942E-2
3.287666904E0,9.624999948E-4,-5.499999970E-4,2.076249942E-2
3.290167519E0,-1.374999993E-4,5.499999970E-4,1.966249943E-2
3.292668145E0,3.162499983E-3,-1.649999991E-3,1.966249943E-2
3.295168760E0,-1.374999993E-4,-5.499999970E-4,1.869999990E-2
3.297669375E0,9.624999948E-4,-5.499999970E-4,1.869999990E-2
3.300169991E0,-1.374999993E-4,-5.499999970E-4,1.759999990E-2
3.302670621E0,9.624999948E-4,5.499999970E-4,1.649999991E-2
3.305171237E0,-1.374999993E-4,-1.649999991E-3,1.759999990E-2
3.307671853E0,-1.374999993E-4,-5.499999970E-4,1.649999991E-2
3.310172468E0,-1.374999993E-4,-5.499999970E-4,1.223750040E-2
3.312673074E0,9.624999948E-4,-5.499999970E-4,1.443750039E-2
3.315173689E0,-1.099999994E-3,-1.649999991E-3,1.443750039E-2
3.317674304E0,9.624999948E-4,-5.499999970E-4,1.333750039E-2
3.320174919E0,-1.374999993E-4,-1.649999991E-3,1.223750040E-2
3.322675514E0,3.162499983E-3,-2.612499986E-3,1.017499994E-2
3.325176130E0,-1.374999993E-4,-5.499999970E-4,1.017499994E-2
3.327676746E0,-1.099999994E-3,5.499999970E-4,9.074999951E-3
3.330177362E0,-1.099999994E-3,-5.499999970E-4,7.974999957E-3
3.332677747E0,9.624999948E-4,-5.499999970E-4,6.874999963E-3
3.335178562E0,-1.374999993E-4,-5.499999970E-4,4.812499974E-3
3.337678949E0,-1.374999993E-4,-5.499999970E-4,3.712499980E-3
3.340179793E0,9.624999948E-4,-5.499999970E-4,1.649999991E-3
3.342680180E0,-1.374999993E-4,-5.499999970E-4,-5.499999970E-4
3.345181029E0,9.624999948E-4,5.499999970E-4,-2.612499986E-3
3.347681415E0,9.624999948E-4,5.499999970E-4,-4.812499974E-3
3.350182029E0,-1.374999993E-4,-5.499999970E-4,-7.974999957E-3
3.352682644E0,-1.374999993E-4,5.499999970E-4,-9.074999951E-3
3.355183241E0,9.624999948E-4,5.499999970E-4,-1.003750041E-2
3.357683856E0,9.624999948E-4,-5.499999970E-4,-1.003750041E-2
3.360184471E0,-1.099999994E-3,5.499999970E-4,-1.223750040E-2
3.362685087E0,-1.374999993E-4,1.649999991E-3,-1.333750039E-2
3.365185707E0,9.624999948E-4,5.499999970E-4,-1.539999992E-2
3.367686322E0,-1.099999994E-3,-5.499999970E-4,-1.429999992E-2
3.370186938E0,9.624999948E-4,1.649999991E-3,-1.649999991E-2
3.372687554E0,-1.374999993E-4,2.612499986E-3,-1.759999990E-2
3.375188170E0,2.062499989E-3,1.649999991E-3,-1.856249943E-2
3.377688781E0,2.062499989E-3,-5.499999970E-4,-2.282499894E-2
3.380189396E0,9.624999948E-4,5.499999970E-4,-2.392499894E-2
3.382690011E0,2.062499989E-3,5.499999970E-4,-2.392499894E-2
3.385190626E0,2.062499989E-3,5.499999970E-4,-2.708750032E-2
3.387691236E0,9.624999948E-4,1.649999991E-3,-2.928750031E-2
3.390191851E0,-1.374999993E-4,1.649999991E-3,-2.928750031E-2
3.392692466E0,-1.374999993E-4,2.612499986E-3,-2.928750031E-2
3.395193082E0,-1.374999993E-4,5.499999970E-4,-3.244999796E-2
3.397693693E0,3.162499983E-3,1.649999991E-3,-3.355000168E-2
3.400194309E0,3.162499983E-3,5.499999970E-4,-3.451250121E-2
3.402694925E0,9.624999948E-4,1.649999991E-3,-3.451250121E-2
3.405195540E0,9.624999948E-4,1.649999991E-3,-3.671250120E-2
3.407696184E0,9.624999948E-4,2.612499986E-3,-3.451250121E-2
3.410196799E0,9.624999948E-4,5.499999970E-4,-3.671250120E-2
3.412697414E0,9.624999948E-4,-4.812499974E-3,-3.561250120E-2
3.415198029E0,-1.718750037E-2,-1.223750040E-2,-3.561250120E-2
3.417698644E0,-2.983750030E-2,-1.649999991E-2,-3.355000168E-2
3.420199250E0,-1.388750039E-2,-1.429999992E-2,-3.451250121E-2
3.422699866E0,-8.662499487E-3,-7.974999957E-3,-3.671250120E-2
3.425200482E0,-1.072499994E-2,-6.874999963E-3,-3.451250121E-2
3.427701098E0,-6.462499965E-3,-6.874999963E-3,-3.244999796E-2
3.430201689E0,-1.374999993E-4,-5.499999970E-4,-3.355000168E-2
3.432702304E0,-1.099999994E-3,4.812499974E-3,-3.355000168E-2
3.435202919E0,9.624999948E-4,2.612499986E-3,-3.355000168E-2
3.437703534E0,9.624999948E-4,-2.612499986E-3,-3.355000168E-2
3.440204149E0,-4.399999976E-3,-5.774999969E-3,-3.244999796E-2
3.442704745E0,-8.662499487E-3,-4.812499974E-3,-3.355000168E-2
3.445205286E0,-8.662499487E-3,-9.074999951E-3,-3.135000169E-2
3.447705899E0,-1.924999990E-2,-1.539999992E-2,-3.038750030E-2
3.450206514E0,-4.482499883E-2,-3.024999984E-2,-2.502499893E-2
3.452707106E0,-5.004999787E-2,-4.097500071E-2,-2.282499894E-2
3.455207721E0,-3.946249932E-2,-3.244999796E-2,-2.186249942E-2
3.457708337E0,-3.409999982E-2,-2.818750031E-2,-1.856249943E-2
3.460208952E0,-3.203750029E-2,-2.392499894E-2,-1.333750039E-2
3.462709547E0,-1.924999990E-2,-2.186249942E-2,-1.003750041E-2
3.465210163E0,-1.388750039E-2,-1.113750041E-2,-5.774999969E-3
3.467710779E0,-1.072499994E-2,-4.812499974E-3,5.499999970E-4
3.470211395E0,-3.299999982E-3,5.912499968E-3,1.649999991E-3
3.472712006E0,1.911249943E-2,-1.649999991E-3,3.712499980E-3
3.475212621E0,-1.718750037E-2,-4.812499974E-3,1.017499994E-2
3.477713236E0,-4.399999976E-3,-1.113750041E-2,1.223750040E-2
3.480213851E0,7.287499961E-3,-5.499999970E-4,1.443750039E-2
3.482714466E0,2.062499989E-3,5.912499968E-3,1.649999991E-2
3.485215091E0,-4.399999976E-3,3.712499980E-3,2.282499894E-2
3.487715706E0,2.062499989E-3,-6.874999963E-3,2.708750032E-2
3.490216322E0,3.162499983E-3,-3.712499980E-3,2.818750031E-2
3.492716938E0,-5.362499971E-3,5.499999970E-4,3.135000169E-2
3.495217568E0,-1.099999994E-3,-1.649999991E-3,3.135000169E-2
3.497718184E0,2.062499989E-3,-5.774999969E-3,3.671250120E-2
3.500218799E0,-1.374999993E-4,-2.612499986E-3,4.207500070E-2
3.502719414E0,2.062499989E-3,-5.499999970E-4,4.317500070E-2
3.505220029E0,4.124999978E-3,3.712499980E-3,4.743750021E-2
3.507720644E0,2.062499989E-3,2.612499986E-3,4.949999973E-2
3.510221259E0,-4.399999976E-3,-3.712499980E-3,5.266249925E-2
3.512721874E0,-1.374999993E-4,-9.074999951E-3,5.156249925E-2
3.515222490E0,-1.374999993E-4,-6.874999963E-3,5.376249924E-2
3.517723106E0,-1.374999993E-4,1.649999991E-3,5.266249925E-2
3.520223722E0,3.162499983E-3,2.612499986E-3,5.582499877E-2
3.522724338E0,9.624999948E-4,5.499999970E-4,5.582499877E-2
3.525224953E0,-1.099999994E-3,-2.612499986E-3,5.266249925E-2
3.527725573E0,-2.199999988E-3,-4.812499974E-3,5.486249924E-2
3.530226188E0,-1.374999993E-4,-1.649999991E-3,5.266249925E-2
3.532726803E0,-1.099999994E-3,-1.649999991E-3,4.949999973E-2
3.535227418E0,2.062499989E-3,-2.612499986E-3,4.949999973E-2
3.537728009E0,9.624999948E-4,-3.712499980E-3,4.949999973E-2
3.540228396E0,2.062499989E-3,5.499999970E-4,4.949999973E-2
3.542729009E0,9.624999948E-4,4.812499974E-3,4.633750021E-2
3.545229624E0,-1.099999994E-3,2.612499986E-3,4.633750021E-2
3.547730240E0,-2.199999988E-3,-5.774999969E-3,4.413750023E-2
3.550230855E0,-1.374999993E-4,-5.774999969E-3,4.097500071E-2
3.552731471E0,2.062499989E-3,-4.812499974E-3,4.317500070E-2
3.555232086E0,3.162499983E-3,2.612499986E-3,4.207500070E-2
3.557732691E0,4.124999978E-3,3.712499980E-3,4.317500070E-2
3.560233307E0,-1.374999993E-4,-1.649999991E-3,4.317500070E-2
3.562733923E0,-2.199999988E-3,-3.712499980E-3,4.317500070E-2
3.565234539E0,-4.399999976E-3,-3.712499980E-3,3.987500072E-2
3.567735155E0,-1.099999994E-3,-1.649999991E-3,3.671250120E-2
3.570235770E0,-1.374999993E-4,-2.612499986E-3,3.561250120E-2
3.572736385E0,9.624999948E-4,-1.649999991E-3,3.671250120E-2
3.575237000E0,3.162499983E-3,-3.712499980E-3,3.561250120E-2
3.577737615E0,9.624999948E-4,5.499999970E-4,3.561250120E-2
3.580238216E0,-1.374999993E-4,3.712499980E-3,3.135000169E-2
3.582738831E0,-2.199999988E-3,-1.649999991E-3,3.135000169E-2
3.585239447E0,-3.299999982E-3,-4.812499974E-3,2.818750031E-2
3.587740063E0,-1.099999994E-3,-5.774999969E-3,2.818750031E-2
3.590240683E0,2.062499989E-3,-5.499999970E-4,2.818750031E-2
3.592741299E0,4.124999978E-3,2.612499986E-3,2.928750031E-2
3.595241914E0,4.124999978E-3,3.712499980E-3,2.818750031E-2
3.597742529E0,-1.374999993E-4,5.499999970E-4,2.708750032E-2
3.600243144E0,-2.199999988E-3,-4.812499974E-3,2.708750032E-2
3.602743783E0,-2.199999988E-3,-5.774999969E-3,2.502499893E-2
3.605244398E0,-1.374999993E-4,-5.499999970E-4,2.392499894E-2
3.607744938E0,2.062499989E-3,3.712499980E-3,2.392499894E-2
3.610245629E0,4.124999978E-3,-1.649999991E-3,2.392499894E-2
3.612746256E0,2.062499989E-3,-3.712499980E-3,2.502499893E-2
3.615246795E0,-1.374999993E-4,-5.499999970E-4,2.282499894E-2
3.617747408E0,-2.199999988E-3,2.612499986E-3,2.186249942E-2
3.620248023E0,-4.399999976E-3,-5.499999970E-4,2.076249942E-2
3.622748649E0,-4.399999976E-3,-3.712499980E-3,1.759999990E-2
3.625249264E0,-1.374999993E-4,-4.812499974E-3,1.759999990E-2
3.627749879E0,3.162499983E-3,-1.649999991E-3,1.539999992E-2
3.630250495E0,3.162499983E-3,5.912499968E-3,1.443750039E-2
3.632751111E0,9.624999948E-4,3.712499980E-3,1.333750039E-2
3.635251727E0,-2.199999988E-3,-5.499999970E-4,1.223750040E-2
3.637752343E0,-2.199999988E-3,-2.612499986E-3,9.074999951E-3
3.640252958E0,-1.099999994E-3,-2.612499986E-3,7.974999957E-3
3.642753573E0,-1.099999994E-3,1.649999991E-3,4.812499974E-3
3.645254192E0,2.062499989E-3,1.649999991E-3,2.612499986E-3
3.647754807E0,4.124999978E-3,-5.499999970E-4,3.712499980E-3
3.650255422E0,3.162499983E-3,-1.649999991E-3,-5.499999970E-4
3.652756037E0,-1.374999993E-4,-5.499999970E-4,-3.712499980E-3
3.655256658E0,-2.199999988E-3,1.649999991E-3,-5.774999969E-3
3.657757274E0,-2.199999988E-3,1.649999991E-3,-6.874999963E-3
3.660257890E0,-1.099999994E-3,-1.649999991E-3,-1.003750041E-2
3.662758506E0,2.062499989E-3,-2.612499986E-3,-1.113750041E-2
3.665259126E0,9.624999948E-4,-5.499999970E-4,-1.223750040E-2
3.667759741E0,3.162499983E-3,3.712499980E-3,-1.333750039E-2
3.670260356E0,-2.199999988E-3,4.812499974E-3,-1.429999992E-2
3.672760971E0,-3.299999982E-3,-1.649999991E-3,-1.649999991E-2
3.675261591E0,-3.299999982E-3,-4.812499974E-3,-1.333750039E-2
3.677762206E0,-2.199999988E-3,-1.649999991E-3,-1.649999991E-2
3.680262822E0,3.162499983E-3,4.812499974E-3,-1.649999991E-2
3.682763208E0,2.062499989E-3,3.712499980E-3,-1.429999992E-2
3.685264037E0,4.124999978E-3,5.499999970E-4,-1.429999992E-2
3.687764424E0,-1.374999993E-4,-5.499999970E-4,-1.539999992E-2
3.690265268E0,-1.374999993E-4,-1.649999991E-3,-1.539999992E-2
3.692765655E0,-2.199999988E-3,2.612499986E-3,-1.649999991E-2
3.695266499E0,-1.374999993E-4,2.612499986E-3,-1.649999991E-2
3.697766896E0,2.062499989E-3,-1.649999991E-3,-1.759999990E-2
3.700267740E0,2.062499989E-3,-3.712499980E-3,-1.759999990E-2
3.702768126E0,4.124999978E-3,-5.499999970E-4,-1.966249943E-2
3.705268971E0,9.624999948E-4,5.912499968E-3,-2.186249942E-2
3.707769366E0,-1.374999993E-4,3.712499980E-3,-2.186249942E-2
3.710269980E0,-4.399999976E-3,5.499999970E-4,-2.076249942E-2
3.712770595E0,-4.399999976E-3,-5.774999969E-3,-2.186249942E-2
3.715271210E0,-1.099999994E-3,-5.499999970E-4,-2.186249942E-2
3.717771846E0,3.162499983E-3,2.612499986E-3,-2.076249942E-2
3.720272461E0,2.062499989E-3,4.812499974E-3,-2.282499894E-2
3.722773077E0,2.062499989E-3,-5.499999970E-4,-1.966249943E-2
3.725273923E0,-1.374999993E-4,-2.612499986E-3,-1.759999990E-2
3.727774299E0,-3.299999982E-3,-5.499999970E-4,-1.539999992E-2
3.730275143E0,-1.099999994E-3,2.612499986E-3,-1.333750039E-2
3.732775530E0,-1.099999994E-3,2.612499986E-3,-1.003750041E-2
3.735276374E0,3.162499983E-3,-5.499999970E-4,-7.974999957E-3
3.737776761E0,4.124999978E-3,-2.612499986E-3,-3.712499980E-3
3.740277610E0,4.124999978E-3,-1.649999991E-3,-1.649999991E-3
3.742777997E0,2.062499989E-3,3.712499980E-3,-5.499999970E-4
3.745278610E0,-1.099999994E-3,3.712499980E-3,2.612499986E-3
3.747779225E0,-2.199999988E-3,5.499999970E-4,4.812499974E-3
3.750279841E0,-3.299999982E-3,-5.774999969E-3,7.974999957E-3
3.752780456E0,2.062499989E-3,-1.649999991E-3,1.017499994E-2
3.755281072E0,2.062499989E-3,1.649999991E-3,1.113750041E-2
3.757781687E0,4.124999978E-3,5.499999970E-4,1.113750041E-2
3.760282302E0,9.624999948E-4,-5.499999970E-4,1.649999991E-2
3.762782918E0,-1.099999994E-3,-5.774999969E-3,1.966249943E-2
3.765283534E0,-5.362499971E-3,-2.612499986E-3,2.392499894E-2
3.767784150E0,-3.299999982E-3,2.612499986E-3,2.392499894E-2
3.770284766E0,-2.199999988E-3,1.649999991E-3,2.612499893E-2
3.772785386E0,9.624999948E-4,-5.499999970E-4,2.928750031E-2
3.775286001E0,4.124999978E-3,-4.812499974E-3,2.928750031E-2
3.777786616E0,2.062499989E-3,-1.649999991E-3,3.038750030E-2
3.780287231E0,-1.374999993E-4,1.649999991E-3,2.928750031E-2
3.782787850E0,-4.399999976E-3,2.612499986E-3,3.038750030E-2
3.785288465E0,-2.199999988E-3,-5.499999970E-4,3.135000169E-2
3.787789081E0,-1.099999994E-3,-3.712499980E-3,3.135000169E-2
3.790289697E0,3.162499983E-3,-2.612499986E-3,2.928750031E-2
3.792790318E0,4.124999978E-3,1.649999991E-3,2.392499894E-2
3.795290934E0,3.162499983E-3,2.612499986E-3,2.186249942E-2
3.797791549E0,9.624999948E-4,-5.499999970E-4,1.966249943E-2
3.800292164E0,-3.299999982E-3,-4.812499974E-3,1.869999990E-2
3.802792789E0,-1.374999993E-4,-3.712499980E-3,1.443750039E-2
3.805293404E0,-3.299999982E-3,2.612499986E-3,9.074999951E-3
3.807794019E0,9.624999948E-4,3.712499980E-3,6.874999963E-3
3.810294634E0,4.124999978E-3,-1.649999991E-3,5.499999970E-4
3.812795245E0,3.162499983E-3,-2.612499986E-3,-1.649999991E-3
3.815295861E0,2.062499989E-3,-3.712499980E-3,-2.612499986E-3
3.817796477E0,-1.099999994E-3,2.612499986E-3,-6.874999963E-3
3.820297093E0,-4.399999976E-3,3.712499980E-3,-6.874999963E-3
3.822797631E0,-3.299999982E-3,5.499999970E-4,-7.974999957E-3
3.825298259E0,-1.374999993E-4,-2.612499986E-3,-1.223750040E-2
3.827798874E0,3.162499983E-3,-5.499999970E-4,-1.333750039E-2
3.830299489E0,4.124999978E-3,2.612499986E-3,-1.759999990E-2
3.832800105E0,3.162499983E-3,3.712499980E-3,-1.759999990E-2
3.835300711E0,-1.374999993E-4,1.649999991E-3,-1.759999990E-2
3.837801327E0,-3.299999982E-3,-3.712499980E-3,-1.759999990E-2
3.840301943E0,-2.199999988E-3,-5.499999970E-4,-1.759999990E-2
3.842802559E0,-1.374999993E-4,2.612499986E-3,-2.076249942E-2
3.845303179E0,2.062499989E-3,4.812499974E-3,-2.502499893E-2
3.847803794E0,4.124999978E-3,1.649999991E-3,-2.708750032E-2
3.850304409E0,2.062499989E-3,-2.612499986E-3,-2.502499893E-2
3.852805024E0,-1.374999993E-4,-3.712499980E-3,-2.612499893E-2
3.855305668E0,-1.099999994E-3,5.499999970E-4,-2.928750031E-2
3.857806283E0,-4.399999976E-3,5.912499968E-3,-2.708750032E-2
3.860306898E0,-3.299999982E-3,1.649999991E-3,-2.708750032E-2
3.862807513E0,-1.374999993E-4,5.499999970E-4,-2.708750032E-2
3.865308129E0,4.124999978E-3,-1.649999991E-3,-2.818750031E-2
3.867808707E0,2.062499989E-3,2.612499986E-3,-2.818750031E-2
3.870309323E0,9.624999948E-4,1.649999991E-3,-2.612499893E-2
3.872809939E0,-3.299999982E-3,1.649999991E-3,-2.612499893E-2
3.875310554E0,-4.399999976E-3,-1.649999991E-3,-2.186249942E-2
3.877811173E0,-3.299999982E-3,-5.499999970E-4,-2.186249942E-2
3.880311788E0,9.624999948E-4,3.712499980E-3,-2.502499893E-2
3.882812403E0,3.162499983E-3,5.912499968E-3,-2.502499893E-2
3.885313018E0,4.124999978E-3,1.649999991E-3,-2.392499894E-2
3.887813624E0,9.624999948E-4,-2.612499986E-3,-2.282499894E-2
3.890314011E0,-1.374999993E-4,-2.612499986E-3,-2.282499894E-2
3.892814624E0,-3.299999982E-3,1.649999991E-3,-2.392499894E-2
3.895315240E0,-1.099999994E-3,5.912499968E-3,-2.502499893E-2
3.897815855E0,-1.374999993E-4,3.712499980E-3,-2.502499893E-2
3.900316495E0,2.062499989E-3,5.499999970E-4,-2.282499894E-2
3.902817110E0,2.062499989E-3,-1.649999991E-3,-2.186249942E-2
3.905317725E0,2.062499989E-3,5.499999970E-4,-2.282499894E-2
3.907818341E0,-1.374999993E-4,5.499999970E-4,-2.282499894E-2
3.910318981E0,-1.099999994E-3,-1.649999991E-3,-1.966249943E-2
3.912819597E0,-4.399999976E-3,-2.612499986E-3,-1.759999990E-2
3.915320213E0,-2.199999988E-3,-5.499999970E-4,-1.333750039E-2
3.917820828E0,9.624999948E-4,4.812499974E-3,-1.113750041E-2
3.920321443E0,2.062499989E-3,3.712499980E-3,-9.074999951E-3
3.922822058E0,2.062499989E-3,-5.499999970E-4,-5.774999969E-3
3.925322673E0,-1.374999993E-4,-2.612499986E-3,-5.499999970E-4
3.927823288E0,-1.099999994E-3,-3.712499980E-3,3.712499980E-3
3.930323903E0,-3.299999982E-3,5.499999970E-4,7.974999957E-3
3.932824514E0,-2.199999988E-3,2.612499986E-3,9.074999951E-3
3.935325130E0,-1.374999993E-4,3.712499980E-3,1.333750039E-2
3.937825746E0,4.124999978E-3,-1.649999991E-3,1.539999992E-2
3.940326362E0,3.162499983E-3,-2.612499986E-3,1.966249943E-2
3.942826977E0,9.624999948E-4,-2.612499986E-3,2.282499894E-2
3.945327592E0,-1.099999994E-3,-5.499999970E-4,2.502499893E-2
3.947828207E0,-2.199999988E-3,-1.649999991E-3,3.135000169E-2
3.950328822E0,-2.199999988E-3,-5.499999970E-4,3.464999795E-2
3.952829442E0,-1.099999994E-3,-5.499999970E-4,3.891250119E-2
3.955330057E0,2.062499989E-3,5.499999970E-4,3.987500072E-2
3.957830673E0,2.062499989E-3,-5.499999970E-4,4.413750023E-2
3.960331289E0,2.062499989E-3,-3.712499980E-3,4.743750021E-2
3.962831905E0,-1.374999993E-4,-5.774999969E-3,5.059999973E-2
3.965332516E0,-2.199999988E-3,-4.812499974E-3,5.266249925E-2
3.967833054E0,-4.399999976E-3,-5.499999970E-4,5.802499875E-2
3.970333745E0,-2.199999988E-3,2.612499986E-3,5.692499876E-2
3.972834285E0,-1.374999993E-4,1.649999991E-3,6.118749827E-2
3.975334981E0,2.062499989E-3,-1.649999991E-3,6.228749827E-2
3.977835522E0,2.062499989E-3,-4.812499974E-3,6.228749827E-2
3.980336135E0,-1.374999993E-4,-3.712499980E-3,6.544999778E-2
3.982836751E0,-1.099999994E-3,-1.649999991E-3,6.544999778E-2
3.985337351E0,-2.199999988E-3,-1.649999991E-3,6.655000150E-2
3.987837966E0,-1.099999994E-3,-2.612499986E-3,6.861250103E-2
3.990338582E0,9.624999948E-4,-1.649999991E-3,6.861250103E-2
3.992839197E0,3.162499983E-3,-5.499999970E-4,6.971249729E-2
3.995339812E0,4.124999978E-3,-2.612499986E-3,6.971249729E-2
3.997840419E0,9.624999948E-4,-2.612499986E-3,7.081250101E-2
4.000341035E0,9.624999948E-4,-6.874999963E-3,7.081250101E-2
4.002841651E0,-2.199999988E-3,-5.774999969E-3,7.081250101E-2
4.005342267E0,-2.199999988E-3,-1.649999991E-3,7.397499681E-2
4.007842886E0,9.624999948E-4,1.649999991E-3,7.397499681E-2
4.010343501E0,3.162499983E-3,-1.649999991E-3,7.191249728E-2
4.012844116E0,4.124999978E-3,-4.812499974E-3,7.191249728E-2
4.015344731E0,9.624999948E-4,-6.874999963E-3,7.191249728E-2
4.017845346E0,-1.099999994E-3,-4.812499974E-3,6.971249729E-2
4.020345961E0,-3.299999982E-3,-1.649999991E-3,6.861250103E-2
4.022846577E0,-2.199999988E-3,-5.499999970E-4,6.338749826E-2
4.025347193E0,-1.374999993E-4,-5.499999970E-4,6.338749826E-2
4.027847795E0,2.062499989E-3,-1.649999991E-3,6.118749827E-2
4.030348411E0,2.062499989E-3,-5.499999970E-4,5.692499876E-2
4.032849026E0,2.062499989E-3,-3.712499980E-3,5.266249925E-2
4.035349641E0,-1.099999994E-3,-4.812499974E-3,4.949999973E-2
4.037850275E0,-1.374999993E-4,-4.812499974E-3,4.523750022E-2
4.040350890E0,-1.099999994E-3,-2.612499986E-3,4.317500070E-2
4.042851276E0,-1.099999994E-3,5.499999970E-4,4.097500071E-2
4.045352120E0,-1.099999994E-3,2.612499986E-3,3.355000168E-2
4.047852507E0,2.062499989E-3,-5.499999970E-4,3.038750030E-2
4.050353380E0,2.062499989E-3,-4.812499974E-3,2.392499894E-2
4.052853767E0,2.062499989E-3,-4.812499974E-3,1.869999990E-2
4.055354611E0,-1.099999994E-3,-3.712499980E-3,1.649999991E-2
4.057855228E0,-1.099999994E-3,-5.499999970E-4,1.443750039E-2
4.060355839E0,-2.199999988E-3,2.612499986E-3,1.017499994E-2
4.062856454E0,9.624999948E-4,1.649999991E-3,5.912499968E-3
4.065357069E0,2.062499989E-3,1.649999991E-3,5.499999970E-4
4.067857685E0,2.062499989E-3,-5.499999970E-4,-5.774999969E-3
4.070358286E0,9.624999948E-4,5.499999970E-4,-1.223750040E-2
4.072858901E0,-1.374999993E-4,-2.612499986E-3,-1.649999991E-2
4.075359516E0,-2.199999988E-3,-5.499999970E-4,-2.186249942E-2
4.077860131E0,-2.199999988E-3,1.649999991E-3,-2.502499893E-2
4.080360721E0,-1.099999994E-3,4.812499974E-3,-2.708750032E-2
4.082861336E0,2.062499989E-3,5.912499968E-3,-3.244999796E-2
4.085361952E0,2.062499989E-3,1.649999991E-3,-3.781250119E-2
4.087862568E0,2.062499989E-3,-2.612499986E-3,-4.303750023E-2
4.090362954E0,9.624999948E-4,-1.649999991E-3,-4.839999974E-2
4.092863799E0,-1.099999994E-3,1.649999991E-3,-5.156249925E-2
4.095364185E0,-1.099999994E-3,3.712499980E-3,-5.059999973E-2
4.097864799E0,-1.374999993E-4,4.812499974E-3,-5.266249925E-2
4.100365414E0,9.624999948E-4,2.612499986E-3,-5.486249924E-2
4.102866039E0,3.162499983E-3,5.499999970E-4,-5.692499876E-2
4.105366654E0,9.624999948E-4,5.499999970E-4,-5.802499875E-2
4.107867269E0,-1.374999993E-4,-5.499999970E-4,-6.324999779E-2
4.110367885E0,-1.099999994E-3,1.649999991E-3,-6.008749828E-2
4.112868510E0,-1.374999993E-4,-5.499999970E-4,-6.008749828E-2
4.115369125E0,-2.199999988E-3,2.612499986E-3,-5.898749828E-2
4.117869741E0,-1.374999993E-4,4.812499974E-3,-5.898749828E-2
4.120370357E0,2.062499989E-3,4.812499974E-3,-5.802499875E-2
4.122870973E0,9.624999948E-4,5.499999970E-4,-6.118749827E-2
4.125371584E0,2.062499989E-3,-5.499999970E-4,-6.118749827E-2
4.127872199E0,-1.374999993E-4,-5.499999970E-4,-6.118749827E-2
4.130372814E0,-1.099999994E-3,1.649999991E-3,-5.802499875E-2
4.132873429E0,-1.099999994E-3,6.874999963E-3,-5.582499877E-2
4.135374025E0,-1.099999994E-3,4.812499974E-3,-5.376249924E-2
4.137874640E0,3.162499983E-3,2.612499986E-3,-5.266249925E-2
4.140375255E0,-1.374999993E-4,1.649999991E-3,-5.059999973E-2
4.142875871E0,2.062499989E-3,-5.499999970E-4,-4.949999973E-2
4.145376491E0,-1.374999993E-4,1.649999991E-3,-4.839999974E-2
4.147877107E0,9.624999948E-4,1.649999991E-3,-4.207500070E-2
4.150377723E0,-1.374999993E-4,-5.499999970E-4,-3.877500072E-2
4.152878338E0,-1.374999993E-4,-5.499999970E-4,-3.355000168E-2
4.155378958E0,2.062499989E-3,2.612499986E-3,-3.038750030E-2
4.157879573E0,9.624999948E-4,3.712499980E-3,-3.038750030E-2
4.160380188E0,2.062499989E-3,5.499999970E-4,-2.818750031E-2
4.162880728E0,-1.374999993E-4,-1.649999991E-3,-2.502499893E-2
4.165381341E0,-1.374999993E-4,-2.612499986E-3,-2.282499894E-2
4.167881957E0,-2.199999988E-3,2.612499986E-3,-1.966249943E-2
4.170382572E0,-1.374999993E-4,2.612499986E-3,-1.759999990E-2
4.172883188E0,9.624999948E-4,4.812499974E-3,-1.539999992E-2
4.175383803E0,3.162499983E-3,1.649999991E-3,-1.429999992E-2
4.177884418E0,9.624999948E-4,-1.649999991E-3,-1.333750039E-2
4.180385034E0,9.624999948E-4,-5.499999970E-4,-1.113750041E-2
4.182885650E0,-1.099999994E-3,5.499999970E-4,-1.113750041E-2
4.185386266E0,-1.099999994E-3,5.499999970E-4,-6.874999963E-3
4.187886882E0,-2.199999988E-3,5.499999970E-4,-2.612499986E-3
4.190387497E0,-1.374999993E-4,5.499999970E-4,-1.649999991E-3
4.192888112E0,9.624999948E-4,5.499999970E-4,2.612499986E-3
4.195388727E0,-1.374999993E-4,2.612499986E-3,4.812499974E-3
4.197889332E0,-1.374999993E-4,-5.499999970E-4,7.974999957E-3
4.200389947E0,-1.374999993E-4,-4.812499974E-3,1.017499994E-2
4.202890562E0,-1.374999993E-4,-5.774999969E-3,1.539999992E-2
4.205391178E0,-1.099999994E-3,5.499999970E-4,1.869999990E-2
4.207891794E0,9.624999948E-4,1.649999991E-3,2.076249942E-2
4.210392420E0,2.062499989E-3,1.649999991E-3,2.392499894E-2
4.212893036E0,2.062499989E-3,-1.649999991E-3,2.186249942E-2
4.215393651E0,2.062499989E-3,-5.774999969E-3,2.612499893E-2
4.217894266E0,-1.374999993E-4,-3.712499980E-3,2.708750032E-2
4.220394862E0,-1.099999994E-3,-1.649999991E-3,3.038750030E-2
4.222895477E0,-1.374999993E-4,5.499999970E-4,3.038750030E-2
4.225396092E0,-1.099999994E-3,-5.499999970E-4,3.135000169E-2
4.227896707E0,9.624999948E-4,-1.649999991E-3,3.244999796E-2
4.230397323E0,9.624999948E-4,-5.499999970E-4,3.244999796E-2
4.232897709E0,-1.374999993E-4,-5.499999970E-4,3.244999796E-2
4.235398323E0,2.062499989E-3,-2.612499986E-3,3.561250120E-2
4.237898938E0,-1.374999993E-4,-2.612499986E-3,3.561250120E-2
4.240399553E0,-1.099999994E-3,-3.712499980E-3,3.781250119E-2
4.242900174E0,-1.374999993E-4,-5.499999970E-4,3.891250119E-2
4.245400789E0,-1.099999994E-3,5.499999970E-4,3.781250119E-2
4.247901404E0,9.624999948E-4,-5.499999970E-4,3.891250119E-2
4.250402020E0,2.062499989E-3,-2.612499986E-3,3.781250119E-2
4.252902645E0,2.062499989E-3,-4.812499974E-3,3.781250119E-2
4.255403261E0,-1.374999993E-4,-2.612499986E-3,3.891250119E-2
4.257903877E0,-1.374999993E-4,-1.649999991E-3,3.781250119E-2
4.260404492E0,2.062499989E-3,5.499999970E-4,3.464999795E-2
4.262905107E0,-1.374999993E-4,-5.499999970E-4,3.135000169E-2
4.265405717E0,-1.374999993E-4,-1.649999991E-3,3.038750030E-2
4.267906332E0,9.624999948E-4,-1.649999991E-3,2.612499893E-2
4.270406947E0,2.062499989E-3,-5.499999970E-4,2.612499893E-2
4.272907562E0,9.624999948E-4,-5.499999970E-4,2.076249942E-2
4.275408169E0,-2.199999988E-3,-5.499999970E-4,1.966249943E-2
4.277908785E0,-1.099999994E-3,-2.612499986E-3,1.759999990E-2
4.280409401E0,-1.374999993E-4,5.499999970E-4,1.443750039E-2
4.282910017E0,-1.374999993E-4,5.499999970E-4,1.113750041E-2
4.285410622E0,9.624999948E-4,1.649999991E-3,1.017499994E-2
4.287911237E0,9.624999948E-4,-5.499999970E-4,1.113750041E-2
4.290411852E0,-1.374999993E-4,-3.712499980E-3,6.874999963E-3
4.292912467E0,-1.374999993E-4,-2.612499986E-3,6.874999963E-3
4.295413072E0,-1.374999993E-4,-5.499999970E-4,2.612499986E-3
4.297913687E0,9.624999948E-4,2.612499986E-3,3.712499980E-3
4.300414303E0,-1.374999993E-4,-1.649999991E-3,1.649999991E-3
4.302914919E0,2.062499989E-3,-1.649999991E-3,2.612499986E-3
4.305415535E0,-1.374999993E-4,-2.612499986E-3,5.499999970E-4
4.307916175E0,2.062499989E-3,-2.612499986E-3,5.499999970E-4
4.310416790E0,-1.374999993E-4,-5.499999970E-4,-1.649999991E-3
4.312917405E0,-1.374999993E-4,-2.612499986E-3,-5.499999970E-4
4.315418020E0,-1.099999994E-3,-5.499999970E-4,-2.612499986E-3
4.317918620E0,-1.374999993E-4,1.649999991E-3,-1.649999991E-3
4.320419235E0,9.624999948E-4,1.649999991E-3,-2.612499986E-3
4.322919850E0,2.062499989E-3,5.499999970E-4,5.499999970E-4
4.325420466E0,9.624999948E-4,-1.649999991E-3,1.649999991E-3
4.327921077E0,-1.374999993E-4,-2.612499986E-3,1.649999991E-3
4.330421693E0,-1.374999993E-4,5.499999970E-4,5.499999970E-4
4.332922309E0,-1.099999994E-3,1.649999991E-3,5.499999970E-4
4.335422924E0,-1.374999993E-4,-5.499999970E-4,3.712499980E-3
4.337923539E0,9.624999948E-4,-5.499999970E-4,5.912499968E-3
4.340424078E0,-1.374999993E-4,-1.649999991E-3,6.874999963E-3
4.342924768E0,9.624999948E-4,-2.612499986E-3,1.017499994E-2
4.345425309E0,9.624999948E-4,-5.499999970E-4,1.223750040E-2
4.347925913E0,9.624999948E-4,5.499999970E-4,1.443750039E-2
4.350426529E0,-1.374999993E-4,-1.649999991E-3,1.333750039E-2
4.352927144E0,-1.099999994E-3,-5.499999970E-4,1.649999991E-2
4.355427759E0,9.624999948E-4,-1.649999991E-3,1.539999992E-2
4.357928375E0,9.624999948E-4,5.499999970E-4,1.539999992E-2
4.360428994E0,-1.374999993E-4,5.499999970E-4,1.759999990E-2
4.362929610E0,2.062499989E-3,-1.649999991E-3,1.649999991E-2
4.365430226E0,-1.374999993E-4,-2.612499986E-3,1.649999991E-2
4.367930842E0,-1.099999994E-3,5.499999970E-4,1.443750039E-2
4.370431468E0,9.624999948E-4,5.499999970E-4,1.223750040E-2
4.372932083E0,-1.099999994E-3,1.649999991E-3,1.333750039E-2
4.375432698E0,9.624999948E-4,-1.649999991E-3,1.333750039E-2
4.377933313E0,9.624999948E-4,-1.649999991E-3,1.223750040E-2
4.380433923E0,9.624999948E-4,-5.499999970E-4,9.074999951E-3
4.382934538E0,-1.099999994E-3,1.649999991E-3,1.017499994E-2
4.385435153E0,9.624999948E-4,1.649999991E-3,1.017499994E-2
4.387935768E0,9.624999948E-4,-5.499999970E-4,4.812499974E-3
4.390436384E0,-1.374999993E-4,1.649999991E-3,4.812499974E-3
4.392937000E0,-1.374999993E-4,5.499999970E-4,4.812499974E-3
4.395437616E0,-1.374999993E-4,-5.499999970E-4,2.612499986E-3
4.397938232E0,2.062499989E-3,5.499999970E-4,2.612499986E-3
4.400438847E0,-1.099999994E-3,-1.649999991E-3,-1.649999991E-3
4.402939476E0,-1.374999993E-4,-2.612499986E-3,-1.649999991E-3
4.405440091E0,-1.099999994E-3,5.499999970E-4,-4.812499974E-3
4.407940706E0,9.624999948E-4,3.712499980E-3,-5.774999969E-3
4.410441321E0,9.624999948E-4,5.499999970E-4,-7.974999957E-3
4.412941946E0,-1.374999993E-4,-3.712499980E-3,-7.974999957E-3
4.415442562E0,2.062499989E-3,-2.612499986E-3,-9.074999951E-3
4.417943178E0,9.624999948E-4,5.499999970E-4,-1.003750041E-2
4.420443794E0,9.624999948E-4,1.649999991E-3,-1.333750039E-2
4.422944410E0,-1.374999993E-4,3.712499980E-3,-1.113750041E-2
4.425445025E0,9.624999948E-4,-1.649999991E-3,-1.333750039E-2
4.427945640E0,9.624999948E-4,5.499999970E-4,-1.223750040E-2
4.430446025E0,9.624999948E-4,-5.499999970E-4,-1.333750039E-2
4.432946639E0,9.624999948E-4,5.499999970E-4,-1.333750039E-2
4.435447485E0,9.624999948E-4,5.499999970E-4,-1.223750040E-2
4.437947890E0,-1.099999994E-3,-1.649999991E-3,-1.333750039E-2
4.440448504E0,-1.099999994E-3,5.499999970E-4,-1.113750041E-2
4.442949119E0,-1.099999994E-3,1.649999991E-3,-1.333750039E-2
4.445449735E0,9.624999948E-4,3.712499980E-3,-1.333750039E-2
4.447950350E0,9.624999948E-4,-5.499999970E-4,-1.223750040E-2
4.450450965E0,-1.374999993E-4,-2.612499986E-3,-1.223750040E-2
4.452951581E0,9.624999948E-4,-2.612499986E-3,-1.223750040E-2
4.455452196E0,-1.374999993E-4,-5.499999970E-4,-1.113750041E-2
4.457952793E0,-1.374999993E-4,2.612499986E-3,-1.333750039E-2
4.460453409E0,9.624999948E-4,1.649999991E-3,-1.333750039E-2
4.462954025E0,9.624999948E-4,5.499999970E-4,-1.003750041E-2
4.465454641E0,9.624999948E-4,-2.612499986E-3,-1.003750041E-2
4.467955256E0,9.624999948E-4,-5.499999970E-4,-1.113750041E-2
4.470455866E0,9.624999948E-4,2.612499986E-3,-1.003750041E-2
4.472956481E0,-1.374999993E-4,2.612499986E-3,-7.974999957E-3
4.475457096E0,9.624999948E-4,1.649999991E-3,-9.074999951E-3
4.477957711E0,-1.099999994E-3,1.649999991E-3,-6.874999963E-3
4.480458331E0,-1.374999993E-4,1.649999991E-3,-4.812499974E-3
4.482958946E0,3.162499983E-3,2.612499986E-3,-6.874999963E-3
4.485459562E0,9.624999948E-4,5.499999970E-4,-4.812499974E-3
4.487960178E0,9.624999948E-4,-1.649999991E-3,-3.712499980E-3
4.490460794E0,-1.374999993E-4,-1.649999991E-3,-2.612499986E-3
4.492961425E0,9.624999948E-4,5.499999970E-4,-3.712499980E-3
4.495462040E0,9.624999948E-4,3.712499980E-3,-5.774999969E-3
4.497962655E0,9.624999948E-4,2.612499986E-3,-4.812499974E-3
4.500463194E0,-1.374999993E-4,-1.649999991E-3,-7.974999957E-3
4.502963813E0,9.624999948E-4,-1.649999991E-3,-5.774999969E-3
4.505464428E0,9.624999948E-4,-1.649999991E-3,-9.074999951E-3
4.507965120E0,-1.374999993E-4,4.812499974E-3,-9.074999951E-3
4.510465661E0,-1.374999993E-4,2.612499986E-3,-1.003750041E-2
4.512966269E0,-1.099999994E-3,2.612499986E-3,-1.003750041E-2
4.515466885E0,-1.099999994E-3,1.649999991E-3,-1.113750041E-2
4.517967500E0,3.162499983E-3,6.874999963E-3,-1.113750041E-2
4.520468115E0,2.653750032E-2,1.966249943E-2,-1.429999992E-2
4.522968717E0,5.307500064E-2,3.464999795E-2,-1.539999992E-2
4.525469333E0,5.417500064E-2,4.207500070E-2,-1.649999991E-2
4.527969949E0,4.991250113E-2,3.987500072E-2,-1.429999992E-2
4.530470565E0,4.784999788E-2,3.987500072E-2,-1.539999992E-2
4.532971175E0,3.286249936E-2,3.355000168E-2,-1.539999992E-2
4.535471790E0,1.581249945E-2,1.869999990E-2,-1.539999992E-2
4.537972405E0,9.624999948E-4,-2.612499986E-3,-1.759999990E-2
4.540473020E0,-1.292499993E-2,-1.856249943E-2,-1.539999992E-2
4.542973649E0,-2.461249940E-2,-1.759999990E-2,-1.539999992E-2
4.545474264E0,-2.144999988E-2,-1.223750040E-2,-1.649999991E-2
4.547974880E0,-9.624999948E-3,-2.612499986E-3,-1.333750039E-2
4.550475496E0,7.287499961E-3,6.874999963E-3,-1.223750040E-2
4.552976112E0,2.007500082E-2,1.443750039E-2,-1.003750041E-2
4.555476719E0,3.286249936E-2,1.966249943E-2,-1.429999992E-2
4.557977334E0,2.859999985E-2,2.186249942E-2,-1.333750039E-2
4.560477949E0,1.484999992E-2,1.443750039E-2,-1.333750039E-2
4.562978564E0,-6.462499965E-3,-2.612499986E-3,-7.974999957E-3
4.565479169E0,-1.814999990E-2,-1.429999992E-2,-6.874999963E-3
4.567979784E0,-2.241249941E-2,-1.539999992E-2,-4.812499974E-3
4.570480399E0,-2.351249941E-2,-1.539999992E-2,-5.774999969E-3
4.572981015E0,-2.241249941E-2,-1.649999991E-2,-5.774999969E-3
4.575481602E0,-1.814999990E-2,-1.759999990E-2,-6.874999963E-3
4.577982218E0,-1.072499994E-2,-1.113750041E-2,-3.712499980E-3
4.580482603E0,2.062499989E-3,5.499999970E-4,-6.874999963E-3
4.582983447E0,6.324999966E-3,7.974999957E-3,-5.774999969E-3
4.585483820E0,9.624999948E-4,5.912499968E-3,-5.774999969E-3
4.587984664E0,-7.562499959E-3,-5.774999969E-3,-4.812499974E-3
4.590485051E0,-1.924999990E-2,-1.759999990E-2,-4.812499974E-3
4.592985895E0,-3.093750030E-2,-2.502499893E-2,-6.874999963E-3
4.595486266E0,-3.739999980E-2,-2.818750031E-2,-7.974999957E-3
4.597986880E0,-4.056249931E-2,-2.818750031E-2,-5.774999969E-3
4.600487495E0,-3.629999980E-2,-3.135000169E-2,-4.812499974E-3
4.602988111E0,-2.777500078E-2,-2.076249942E-2,-5.774999969E-3
4.605488697E0,-1.498750038E-2,-1.333750039E-2,-4.812499974E-3
4.607989312E0,-1.182499994E-2,6.874999963E-3,-9.074999951E-3
4.610489928E0,4.028749838E-2,-5.774999969E-3,-1.539999992E-2
4.612990543E0,-2.557500079E-2,1.113750041E-2,-3.712499980E-3
4.615491169E0,-1.374999993E-4,-9.074999951E-3,-9.074999951E-3
4.617991785E0,1.264999993E-2,-4.812499974E-3,-6.874999963E-3
4.620492401E0,-5.362499971E-3,7.974999957E-3,-6.874999963E-3
4.622993017E0,-5.362499971E-3,1.649999991E-3,-7.974999957E-3
4.625493632E0,-4.399999976E-3,-6.874999963E-3,-6.874999963E-3
4.627994266E0,8.387500420E-3,-1.649999991E-3,-9.074999951E-3
4.630494881E0,-3.299999982E-3,7.974999957E-3,-7.974999957E-3
4.632995496E0,5.224999972E-3,5.912499968E-3,-6.874999963E-3
4.635496111E0,2.062499989E-3,-5.499999970E-4,-7.974999957E-3
4.637996740E0,-3.299999982E-3,-5.499999970E-4,-2.612499986E-3
4.640497355E0,-5.362499971E-3,-5.774999969E-3,-2.612499986E-3
4.642997971E0,-2.199999988E-3,1.649999991E-3,-4.812499974E-3
4.645498587E0,5.224999972E-3,4.812499974E-3,-5.774999969E-3
4.647999213E0,-3.299999982E-3,1.649999991E-3,-1.649999991E-3
4.650499829E0,7.287499961E-3,-3.712499980E-3,-2.612499986E-3
4.653000444E0,-1.374999993E-4,-1.649999991E-3,1.649999991E-3
4.655501059E0,-1.099999994E-3,3.712499980E-3,3.712499980E-3
4.658001658E0,-1.374999993E-4,3.712499980E-3,1.649999991E-3
4.660502273E0,7.287499961E-3,7.974999957E-3,5.499999970E-4
4.663002888E0,2.227500081E-2,1.113750041E-2,5.499999970E-4
4.665503503E0,3.712499887E-2,2.392499894E-2,1.649999991E-3
4.668004105E0,5.101250112E-2,3.561250120E-2,5.499999970E-4
4.670504721E0,4.991250113E-2,4.317500070E-2,1.649999991E-3
4.673005337E0,4.455000162E-2,3.781250119E-2,5.499999970E-4
4.675505953E0,2.337500080E-2,1.649999991E-2,1.649999991E-3
4.678006568E0,-1.374999993E-4,1.649999991E-3,1.649999991E-3
4.680507188E0,-2.144999988E-2,-1.333750039E-2,-2.612499986E-3
4.683007803E0,-3.629999980E-2,-1.966249943E-2,-5.499999970E-4
4.685508418E0,-3.313750029E-2,-2.708750032E-2,5.499999970E-4
4.688008958E0,-1.072499994E-2,-1.333750039E-2,-5.499999970E-4
4.690509648E0,2.117500082E-2,1.113750041E-2,-5.499999970E-4
4.693010189E0,4.455000162E-2,3.464999795E-2,-1.649999991E-3
4.695510879E0,5.623750016E-2,4.743750021E-2,-4.812499974E-3
4.698011419E0,5.211250111E-2,4.317500070E-2,-6.874999963E-3
4.700512095E0,3.079999983E-2,2.612499893E-2,-5.774999969E-3
4.703012635E0,1.058750041E-2,4.812499974E-3,-5.774999969E-3
4.705513249E0,-1.182499994E-2,-7.974999957E-3,-3.712499980E-3
4.708013864E0,-2.887500077E-2,-2.502499893E-2,-3.712499980E-3
4.710514479E0,-3.946249932E-2,-3.024999984E-2,-2.612499986E-3
4.713015105E0,-3.836249933E-2,-2.928750031E-2,-3.712499980E-3
4.715515720E0,-2.034999989E-2,-1.333750039E-2,-2.612499986E-3
4.718016336E0,7.287499961E-3,9.074999951E-3,-4.812499974E-3
4.720516952E0,2.653750032E-2,2.186249942E-2,-5.774999969E-3
4.723017592E0,3.396249935E-2,1.869999990E-2,-2.612499986E-3
4.725518208E0,2.763750032E-2,1.443750039E-2,-1.649999991E-3
4.728018823E0,1.058750041E-2,9.074999951E-3,-1.649999991E-3
4.730519438E0,-1.182499994E-2,-3.712499980E-3,-2.612499986E-3
4.733020067E0,-3.409999982E-2,-1.649999991E-2,2.612499986E-3
4.735520682E0,-4.372499883E-2,-3.024999984E-2,1.649999991E-3
4.738021297E0,-3.313750029E-2,-3.355000168E-2,3.712499980E-3
4.740521912E0,-1.924999990E-2,-2.282499894E-2,1.649999991E-3
4.743022552E0,-6.462499965E-3,-6.874999963E-3,1.649999991E-3
4.745523168E0,-1.374999993E-4,1.649999991E-3,2.612499986E-3
4.748023784E0,4.124999978E-3,5.912499968E-3,1.649999991E-3
4.750524400E0,3.162499983E-3,2.612499986E-3,1.649999991E-3
4.753025020E0,2.062499989E-3,3.712499980E-3,5.499999970E-4
4.755525635E0,-4.399999976E-3,-1.649999991E-3,-5.499999970E-4
4.758026250E0,-2.241249941E-2,-1.966249943E-2,-5.499999970E-4
4.760526865E0,-4.056249931E-2,-3.561250120E-2,-5.499999970E-4
4.763027485E0,-4.798749834E-2,-3.987500072E-2,-2.612499986E-3
4.765528100E0,-3.946249932E-2,-2.818750031E-2,-5.774999969E-3
4.768028715E0,-2.144999988E-2,-3.712499980E-3,-5.774999969E-3
4.770529331E0,3.286249936E-2,1.333750039E-2,-7.974999957E-3
4.773029966E0,2.653750032E-2,1.017499994E-2,-7.974999957E-3
4.775530582E0,-2.461249940E-2,-5.499999970E-4,-3.712499980E-3
4.778031198E0,3.162499983E-3,-9.074999951E-3,-6.874999963E-3
4.780531813E0,1.058750041E-2,1.649999991E-3,-1.113750041E-2
4.783032428E0,-2.241249941E-2,4.812499974E-3,-1.003750041E-2
4.785533043E0,-5.362499971E-3,-6.874999963E-3,-7.974999957E-3
4.788033429E0,2.007500082E-2,-1.429999992E-2,-1.113750041E-2
4.790534042E0,-1.182499994E-2,1.113750041E-2,-1.003750041E-2
4.793034658E0,-1.374999993E-4,1.113750041E-2,-1.003750041E-2
4.795535244E0,1.581249945E-2,3.712499980E-3,-1.003750041E-2
4.798035859E0,-2.199999988E-3,-3.712499980E-3,-1.113750041E-2
4.800536475E0,-5.362499971E-3,-9.074999951E-3,-1.429999992E-2
4.803037090E0,-5.362499971E-3,-7.974999957E-3,-1.333750039E-2
4.805537696E0,-1.099999994E-3,4.812499974E-3,-1.539999992E-2
4.808038312E0,-4.399999976E-3,7.974999957E-3,-1.003750041E-2
4.810538928E0,-5.362499971E-3,-6.874999963E-3,-9.074999951E-3
4.813039544E0,4.124999978E-3,-6.874999963E-3,-7.974999957E-3
4.815540160E0,9.487500414E-3,5.499999970E-4,-1.113750041E-2
4.818040760E0,-1.072499994E-2,6.874999963E-3,-1.003750041E-2
4.820541375E0,-1.498750038E-2,-3.712499980E-3,-7.974999957E-3
4.823041990E0,-1.374999993E-4,-1.003750041E-2,-6.874999963E-3
4.825542605E0,-1.099999994E-3,-3.712499980E-3,5.499999970E-4
4.828043235E0,4.124999978E-3,1.649999991E-3,-2.612499986E-3
4.830543850E0,-1.374999993E-4,1.017499994E-2,5.499999970E-4
4.833044466E0,1.058750041E-2,6.874999963E-3,-1.649999991E-3
4.835545082E0,-1.099999994E-3,-1.649999991E-3,2.612499986E-3
4.838045737E0,-1.099999994E-3,-1.003750041E-2,1.649999991E-3
4.840546353E0,-1.374999993E-4,-5.774999969E-3,-5.499999970E-4
4.843046968E0,-1.099999994E-3,3.712499980E-3,2.612499986E-3
4.845547583E0,4.124999978E-3,6.874999963E-3,3.712499980E-3
4.848048193E0,2.062499989E-3,5.499999970E-4,5.912499968E-3
4.850548808E0,4.124999978E-3,-6.874999963E-3,6.874999963E-3
4.853049423E0,-2.199999988E-3,5.499999970E-4,5.912499968E-3
4.855550038E0,9.624999948E-4,1.649999991E-3,2.612499986E-3
4.858050603E0,-6.462499965E-3,1.649999991E-3,9.074999951E-3
4.860551216E0,-1.099999994E-3,-4.812499974E-3,9.074999951E-3
4.863051832E0,-1.099999994E-3,-5.774999969E-3,1.223750040E-2
4.865552447E0,9.624999948E-4,-1.649999991E-3,1.443750039E-2
4.868053062E0,6.324999966E-3,7.974999957E-3,1.333750039E-2
4.870553678E0,-1.374999993E-4,9.074999951E-3,1.539999992E-2
4.873054293E0,-1.374999993E-4,-3.712499980E-3,1.649999991E-2
4.875554909E0,-5.362499971E-3,-9.074999951E-3,1.869999990E-2
4.878055525E0,9.624999948E-4,-2.612499986E-3,1.966249943E-2
4.880556103E0,-1.374999993E-4,3.712499980E-3,1.869999990E-2
4.883056719E0,5.224999972E-3,3.712499980E-3,1.869999990E-2
4.885557334E0,4.124999978E-3,1.649999991E-3,2.186249942E-2
4.888057949E0,2.062499989E-3,-3.712499980E-3,1.966249943E-2
4.890558549E0,9.624999948E-4,-1.649999991E-3,1.649999991E-2
4.893059164E0,-2.199999988E-3,1.649999991E-3,1.539999992E-2
4.895559779E0,-2.199999988E-3,1.649999991E-3,1.113750041E-2
4.898060394E0,-4.399999976E-3,-5.774999969E-3,1.333750039E-2
4.900561009E0,5.224999972E-3,-5.774999969E-3,1.113750041E-2
4.903061606E0,2.062499989E-3,-5.499999970E-4,9.074999951E-3
4.905562222E0,3.162499983E-3,6.874999963E-3,7.974999957E-3
4.908062838E0,-1.099999994E-3,4.812499974E-3,4.812499974E-3
4.910563454E0,-4.399999976E-3,-6.874999963E-3,3.712499980E-3
4.913064069E0,-3.299999982E-3,-5.774999969E-3,3.712499980E-3
4.915564684E0,-1.099999994E-3,-1.649999991E-3,1.649999991E-3
4.918065299E0,2.062499989E-3,6.874999963E-3,1.649999991E-3
4.920565914E0,2.062499989E-3,3.712499980E-3,5.499999970E-4
4.923066529E0,5.224999972E-3,1.649999991E-3,5.499999970E-4
4.925567144E0,-1.099999994E-3,-3.712499980E-3,5.499999970E-4
4.928067760E0,-1.099999994E-3,-5.499999970E-4,-5.499999970E-4
4.930568376E0,-3.299999982E-3,1.649999991E-3,-3.712499980E-3
4.933068992E0,-2.199999988E-3,1.649999991E-3,-4.812499974E-3
4.935569623E0,9.624999948E-4,-3.712499980E-3,-6.874999963E-3
4.938070238E0,4.124999978E-3,-6.874999963E-3,-6.874999963E-3
4.940570623E0,7.287499961E-3,5.499999970E-4,-7.974999957E-3
4.943071467E0,9.624999948E-4,5.912499968E-3,-9.074999951E-3
4.945571844E0,9.624999948E-4,5.912499968E-3,-7.974999957E-3
4.948072457E0,-5.362499971E-3,-4.812499974E-3,-1.113750041E-2
4.950573072E0,-1.099999994E-3,-6.874999963E-3,-1.003750041E-2
4.953073688E0,-1.374999993E-4,-4.812499974E-3,-1.333750039E-2
4.955574279E0,4.124999978E-3,3.712499980E-3,-1.113750041E-2
4.958074895E0,3.162499983E-3,2.612499986E-3,-1.003750041E-2
4.960575510E0,2.062499989E-3,1.649999991E-3,-5.774999969E-3
4.963076125E0,-1.099999994E-3,-2.612499986E-3,-4.812499974E-3
4.965576760E0,-4.399999976E-3,-5.499999970E-4,-4.812499974E-3
4.968077376E0,-3.299999982E-3,3.712499980E-3,-5.499999970E-4
4.970577992E0,-2.199999988E-3,-5.499999970E-4,-5.499999970E-4
4.973078837E0,2.062499989E-3,-2.612499986E-3,3.712499980E-3
4.975579209E0,5.224999972E-3,-4.812499974E-3,4.812499974E-3
4.978080054E0,4.124999978E-3,3.712499980E-3,9.074999951E-3
4.980580440E0,-1.374999993E-4,3.712499980E-3,1.223750040E-2
4.983081284E0,-2.199999988E-3,1.649999991E-3,1.539999992E-2
4.985581671E0,-3.299999982E-3,-5.774999969E-3,1.333750039E-2
4.988082524E0,-2.199999988E-3,-4.812499974E-3,1.333750039E-2
4.990582911E0,4.124999978E-3,-5.499999970E-4,1.443750039E-2
4.993083755E0,6.324999966E-3,5.499999970E-4,1.333750039E-2
4.995584141E0,5.224999972E-3,2.612499986E-3,1.649999991E-2
4.998084996E0,9.624999948E-4,-4.812499974E-3,1.759999990E-2
5.000585382E0,-1.099999994E-3,-1.649999991E-3,2.186249942E-2
5.003085996E0,-4.399999976E-3,-1.649999991E-3,1.649999991E-2
5.005586611E0,-3.299999982E-3,5.912499968E-3,1.966249943E-2
5.008087206E0,-1.374999993E-4,-5.499999970E-4,1.649999991E-2
5.010587822E0,3.162499983E-3,-6.874999963E-3,1.759999990E-2
5.013088437E0,3.162499983E-3,-3.712499980E-3,1.966249943E-2
5.015589053E0,2.062499989E-3,1.649999991E-3,1.966249943E-2
5.018089668E0,-1.099999994E-3,9.074999951E-3,1.966249943E-2
5.020590283E0,-5.362499971E-3,5.499999970E-4,1.966249943E-2
5.023090899E0,-3.299999982E-3,-3.712499980E-3,1.966249943E-2
5.025591515E0,-1.374999993E-4,-6.874999963E-3,1.443750039E-2
5.028092117E0,2.062499989E-3,-5.499999970E-4,1.539999992E-2
5.030592733E0,6.324999966E-3,3.712499980E-3,1.223750040E-2
5.033093348E0,4.124999978E-3,4.812499974E-3,1.333750039E-2
5.035593963E0,-2.199999988E-3,-2.612499986E-3,1.113750041E-2
5.038094597E0,-2.199999988E-3,-6.874999963E-3,1.113750041E-2
5.040595212E0,-4.399999976E-3,5.499999970E-4,2.612499986E-3
5.043095827E0,-1.374999993E-4,4.812499974E-3,5.499999970E-4
5.045596442E0,3.162499983E-3,1.649999991E-3,-1.649999991E-3
5.048097072E0,4.124999978E-3,-7.974999957E-3,-4.812499974E-3
5.050597688E0,4.124999978E-3,-4.812499974E-3,-4.812499974E-3
5.053098304E0,9.624999948E-4,5.499999970E-4,-7.974999957E-3
5.055598920E0,-3.299999982E-3,5.912499968E-3,-9.074999951E-3
5.058099511E0,-6.462499965E-3,3.712499980E-3,-1.113750041E-2
5.060600126E0,-3.299999982E-3,-3.712499980E-3,-1.333750039E-2
5.063100741E0,9.624999948E-4,-4.812499974E-3,-1.539999992E-2
5.065601356E0,5.224999972E-3,-5.499999970E-4,-1.539999992E-2
