"Time (s)","Gyroscope x (rad/s)","Gyroscope y (rad/s)","Gyroscope z (rad/s)"
1.271690820E-1,9.624999948E-4,1.649999991E-3,-3.244999796E-2
1.296696960E-1,2.062499989E-3,5.499999970E-4,-3.038750030E-2
1.321702510E-1,2.062499989E-3,3.712499980E-3,-2.928750031E-2
1.346706360E-1,3.162499983E-3,3.712499980E-3,-2.708750032E-2
1.371711720E-1,9.624999948E-4,1.649999991E-3,-2.392499894E-2
1.396717880E-1,-1.374999993E-4,-1.649999991E-3,-2.392499894E-2
1.421721740E-1,-1.099999994E-3,-3.712499980E-3,-2.186249942E-2
1.446727110E-1,-1.099999994E-3,-3.712499980E-3,-1.856249943E-2
1.471730970E-1,-2.199999988E-3,-2.612499986E-3,-1.856249943E-2
1.496737110E-1,9.624999948E-4,-5.499999970E-4,-1.429999992E-2
1.521742510E-1,2.062499989E-3,2.612499986E-3,-1.333750039E-2
1.546746510E-1,-1.374999993E-4,1.649999991E-3,-1.429999992E-2
1.571751870E-1,3.162499983E-3,1.649999991E-3,-1.113750041E-2
1.596758030E-1,-1.374999993E-4,-5.499999970E-4,-5.774999969E-3
1.621761890E-1,9.624999948E-4,1.649999991E-3,5.499999970E-4
1.646767110E-1,-1.099999994E-3,-5.499999970E-4,5.912499968E-3
1.671770970E-1,-2.199999988E-3,-2.612499986E-3,1.017499994E-2
1.696776340E-1,-1.374999993E-4,-1.649999991E-3,1.539999992E-2
1.721782490E-1,-1.099999994E-3,5.499999970E-4,1.966249943E-2
1.746786360E-1,-1.374999993E-4,-1.649999991E-3,2.502499893E-2
1.771791580E-1,3.162499983E-3,5.499999970E-4,2.818750031E-2
1.796795450E-1,3.162499983E-3,5.499999970E-4,3.244999796E-2
1.821800810E-1,3.162499983E-3,3.712499980E-3,3.987500072E-2
1.846806970E-1,2.062499989E-3,2.612499986E-3,4.317500070E-2
1.871810830E-1,9.624999948E-4,1.649999991E-3,4.839999974E-2
1.896816200E-1,-1.099999994E-3,-1.649999991E-3,5.156249925E-2
1.921820070E-1,-2.199999988E-3,-2.612499986E-3,5.266249925E-2
1.946826200E-1,-1.099999994E-3,-3.712499980E-3,6.008749828E-2
1.971831650E-1,-1.099999994E-3,-5.499999970E-4,6.338749826E-2
1.996835500E-1,9.624999948E-4,1.649999991E-3,6.764999777E-2
2.021840860E-1,9.624999948E-4,2.612499986E-3,6.971249729E-2
2.046847020E-1,2.062499989E-3,2.612499986E-3,7.397499681E-2
2.071850880E-1,9.624999948E-4,3.712499980E-3,7.507500052E-2
2.096856250E-1,2.062499989E-3,1.649999991E-3,7.603749633E-2
2.121860120E-1,-1.374999993E-4,5.499999970E-4,7.823749632E-2
2.146866250E-1,-1.374999993E-4,-2.612499986E-3,7.823749632E-2
2.171871650E-1,-1.374999993E-4,-5.499999970E-4,7.507500052E-2
2.196875210E-1,-1.099999994E-3,-1.649999991E-3,7.713750005E-2
2.221880580E-1,9.624999948E-4,5.499999970E-4,7.933750004E-2
2.246886730E-1,9.624999948E-4,1.649999991E-3,7.933750004E-2
2.271890600E-1,2.062499989E-3,1.649999991E-3,7.823749632E-2
2.296895820E-1,2.062499989E-3,2.612499986E-3,7.823749632E-2
2.321899690E-1,3.162499983E-3,2.612499986E-3,7.823749632E-2
2.346905820E-1,3.162499983E-3,1.649999991E-3,7.933750004E-2
2.371911220E-1,2.062499989E-3,1.649999991E-3,8.139999956E-2
2.396915060E-1,-1.374999993E-4,-5.499999970E-4,8.030000329E-2
2.421920430E-1,-1.099999994E-3,-2.612499986E-3,8.139999956E-2
2.446924290E-1,-2.199999988E-3,-5.499999970E-4,8.139999956E-2
2.471929660E-1,-1.374999993E-4,-5.499999970E-4,8.566249907E-2
2.496935810E-1,9.624999948E-4,5.499999970E-4,8.359999955E-2
2.521939680E-1,3.162499983E-3,3.712499980E-3,8.566249907E-2
2.546945040E-1,2.062499989E-3,5.912499968E-3,8.249999583E-2
2.571948910E-1,9.624999948E-4,1.649999991E-3,8.456250280E-2
2.596954900E-1,2.062499989E-3,5.499999970E-4,8.359999955E-2
2.621960310E-1,-1.099999994E-3,-5.499999970E-4,8.249999583E-2
2.646964150E-1,-1.099999994E-3,-5.499999970E-4,8.030000329E-2
2.671969520E-1,-2.199999988E-3,-1.649999991E-3,7.823749632E-2
2.696975570E-1,-1.374999993E-4,-5.499999970E-4,7.713750005E-2
2.721979440E-1,9.624999948E-4,1.649999991E-3,7.603749633E-2
2.746984800E-1,2.062499989E-3,1.649999991E-3,7.191249728E-2
2.771988670E-1,3.162499983E-3,1.649999991E-3,7.191249728E-2
2.796994510E-1,3.162499983E-3,2.612499986E-3,6.764999777E-2
2.821999920E-1,9.624999948E-4,1.649999991E-3,6.544999778E-2
2.847003760E-1,-1.374999993E-4,5.499999970E-4,6.544999778E-2
2.872009130E-1,9.624999948E-4,-1.649999991E-3,6.118749827E-2
2.897015280E-1,-1.099999994E-3,-1.649999991E-3,6.118749827E-2
2.922018910E-1,-1.099999994E-3,-1.649999991E-3,5.692499876E-2
2.947024270E-1,-1.374999993E-4,-5.499999970E-4,5.582499877E-2
2.972028140E-1,-1.374999993E-4,5.499999970E-4,5.266249925E-2
2.997034270E-1,9.624999948E-4,2.612499986E-3,4.949999973E-2
3.022039680E-1,9.624999948E-4,2.612499986E-3,4.633750021E-2
3.047043520E-1,3.162499983E-3,2.612499986E-3,4.413750023E-2
3.072048890E-1,-1.374999993E-4,3.712499980E-3,3.987500072E-2
3.097055040E-1,-1.099999994E-3,1.649999991E-3,3.561250120E-2
3.122058870E-1,-1.099999994E-3,-1.649999991E-3,3.135000169E-2
3.147064230E-1,-1.099999994E-3,-2.612499986E-3,2.708750032E-2
3.172068100E-1,-3.299999982E-3,-2.612499986E-3,2.282499894E-2
3.197074230E-1,2.062499989E-3,-5.499999970E-4,1.869999990E-2
3.222077330E-1,2.062499989E-3,5.499999970E-4,1.539999992E-2
3.247083310E-1,2.062499989E-3,2.612499986E-3,1.017499994E-2
3.272088700E-1,2.062499989E-3,1.649999991E-3,5.912499968E-3
3.297092560E-1,2.062499989E-3,2.612499986E-3,5.499999970E-4
3.322097930E-1,2.062499989E-3,5.499999970E-4,-1.649999991E-3
3.347104130E-1,9.624999948E-4,-5.499999970E-4,-6.874999963E-3
3.372108000E-1,-1.374999993E-4,-1.649999991E-3,-1.003750041E-2
3.397113360E-1,-1.374999993E-4,-1.649999991E-3,-1.429999992E-2
3.422117230E-1,-1.099999994E-3,-1.649999991E-3,-1.649999991E-2
3.447123500E-1,-1.374999993E-4,5.499999970E-4,-1.966249943E-2
3.472128910E-1,9.624999948E-4,5.499999970E-4,-2.502499893E-2
3.497132750E-1,2.062499989E-3,2.612499986E-3,-2.818750031E-2
3.522138120E-1,3.162499983E-3,2.612499986E-3,-3.038750030E-2
3.547144270E-1,9.624999948E-4,2.612499986E-3,-3.561250120E-2
3.572147850E-1,9.624999948E-4,5.499999970E-4,-3.781250119E-2
3.597153210E-1,-1.099999994E-3,5.499999970E-4,-4.303750023E-2
3.622157080E-1,-1.374999993E-4,-1.649999991E-3,-4.729999974E-2
3.647163210E-1,-1.099999994E-3,-1.649999991E-3,-5.156249925E-2
3.672168670E-1,-1.374999993E-4,-3.712499980E-3,-5.266249925E-2
3.697172520E-1,9.624999948E-4,-5.499999970E-4,-5.898749828E-2
3.722177880E-1,2.062499989E-3,-5.499999970E-4,-5.802499875E-2
3.747184030E-1,3.162499983E-3,2.612499986E-3,-6.324999779E-2
3.772187900E-1,9.624999948E-4,1.649999991E-3,-6.544999778E-2
3.797193260E-1,9.624999948E-4,-5.499999970E-4,-6.751249731E-2
3.822197130E-1,9.624999948E-4,-1.649999991E-3,-6.861250103E-2
3.847203270E-1,-1.099999994E-3,-1.649999991E-3,-6.861250103E-2
3.872208670E-1,-1.374999993E-4,-2.612499986E-3,-6.971249729E-2
3.897212520E-1,-1.374999993E-4,-1.649999991E-3,-7.287500054E-2
3.922218650E-1,-1.099999994E-3,-1.649999991E-3,-7.081250101E-2
3.947224050E-1,9.624999948E-4,-1.649999991E-3,-7.177499682E-2
3.972227900E-1,9.624999948E-4,5.499999970E-4,-7.177499682E-2
3.997233270E-1,2.062499989E-3,2.612499986E-3,-7.177499682E-2
4.022239420E-1,9.624999948E-4,1.649999991E-3,-7.177499682E-2
4.047242520E-1,9.624999948E-4,1.649999991E-3,-7.177499682E-2
4.072248650E-1,-1.374999993E-4,-5.499999970E-4,-7.287500054E-2
4.097252380E-1,-1.099999994E-3,-1.649999991E-3,-7.397499681E-2
4.122257740E-1,-3.299999982E-3,-5.499999970E-4,-7.287500054E-2
4.147261610E-1,-1.099999994E-3,-2.612499986E-3,-7.177499682E-2
4.172267740E-1,9.624999948E-4,-1.649999991E-3,-7.081250101E-2
4.197272860E-1,9.624999948E-4,-1.649999991E-3,-7.081250101E-2
4.222276700E-1,9.624999948E-4,2.612499986E-3,-6.751249731E-2
4.247282070E-1,3.162499983E-3,1.649999991E-3,-6.655000150E-2
4.272288220E-1,9.624999948E-4,2.612499986E-3,-6.228749827E-2
4.297291940E-1,9.624999948E-4,-5.499999970E-4,-6.118749827E-2
4.322297300E-1,9.624999948E-4,-2.612499986E-3,-5.692499876E-2
4.347301170E-1,-1.099999994E-3,-1.649999991E-3,-5.486249924E-2
4.372307300E-1,-1.099999994E-3,-5.499999970E-4,-5.156249925E-2
4.397312620E-1,-1.099999994E-3,5.499999970E-4,-4.729999974E-2
4.422316460E-1,-1.374999993E-4,-5.499999970E-4,-4.207500070E-2
4.447321830E-1,9.624999948E-4,-5.499999970E-4,-4.097500071E-2
4.472327980E-1,9.624999948E-4,5.499999970E-4,-3.781250119E-2
4.497331940E-1,2.062499989E-3,1.649999991E-3,-3.355000168E-2
4.522337300E-1,9.624999948E-4,1.649999991E-3,-2.928750031E-2
4.547341170E-1,-1.099999994E-3,1.649999991E-3,-2.612499893E-2
4.572347300E-1,-1.099999994E-3,-1.649999991E-3,-2.282499894E-2
4.597352710E-1,-1.374999993E-4,-1.649999991E-3,-2.186249942E-2
4.622356550E-1,-1.099999994E-3,-5.499999970E-4,-1.649999991E-2
4.647361920E-1,-1.099999994E-3,-1.649999991E-3,-1.539999992E-2
4.672368070E-1,-1.374999993E-4,-1.649999991E-3,-7.974999957E-3
4.697371940E-1,9.624999948E-4,-5.499999970E-4,-3.712499980E-3
4.722377250E-1,-1.374999993E-4,2.612499986E-3,-5.499999970E-4
4.747381120E-1,2.062499989E-3,2.612499986E-3,4.812499974E-3
4.772387250E-1,2.062499989E-3,1.649999991E-3,1.017499994E-2
4.797390350E-1,-1.374999993E-4,5.499999970E-4,1.333750039E-2
4.822396440E-1,9.624999948E-4,-5.499999970E-4,1.759999990E-2
4.847401830E-1,-1.099999994E-3,-1.649999991E-3,2.282499894E-2
4.872405690E-1,-1.374999993E-4,-1.649999991E-3,2.708750032E-2
4.897411060E-1,-1.374999993E-4,5.499999970E-4,3.038750030E-2
4.922417000E-1,9.624999948E-4,-5.499999970E-4,3.561250120E-2
4.947420870E-1,-1.099999994E-3,5.499999970E-4,3.987500072E-2
4.972426230E-1,-1.374999993E-4,2.612499986E-3,4.097500071E-2
4.997430100E-1,9.624999948E-4,2.612499986E-3,4.317500070E-2
5.022436040E-1,2.062499989E-3,1.649999991E-3,4.839999974E-2
5.047441450E-1,9.624999948E-4,-5.499999970E-4,4.839999974E-2
5.072445290E-1,-1.099999994E-3,-5.499999970E-4,5.376249924E-2
5.097450660E-1,-1.374999993E-4,5.499999970E-4,5.582499877E-2
5.122456520E-1,-1.099999994E-3,5.499999970E-4,5.692499876E-2
5.147460390E-1,-1.374999993E-4,-5.499999970E-4,5.912499875E-2
5.172465750E-1,-1.374999993E-4,5.499999970E-4,6.118749827E-2
5.197469620E-1,9.624999948E-4,1.649999991E-3,6.338749826E-2
5.222475750E-1,3.162499983E-3,1.649999991E-3,6.544999778E-2
5.247481450E-1,9.624999948E-4,2.612499986E-3,6.861250103E-2
5.272485300E-1,3.162499983E-3,5.499999970E-4,7.081250101E-2
5.297490660E-1,-1.374999993E-4,-5.499999970E-4,7.191249728E-2
5.322496810E-1,9.624999948E-4,-5.499999970E-4,7.287500054E-2
5.347500630E-1,-1.099999994E-3,-2.612499986E-3,7.397499681E-2
5.372505990E-1,-2.199999988E-3,-1.649999991E-3,7.397499681E-2
5.397509860E-1,-1.099999994E-3,5.499999970E-4,7.397499681E-2
5.422515230E-1,9.624999948E-4,1.649999991E-3,7.713750005E-2
5.447521280E-1,2.062499989E-3,1.649999991E-3,7.603749633E-2
5.472525150E-1,-1.374999993E-4,1.649999991E-3,7.397499681E-2
5.497530510E-1,-1.374999993E-4,5.499999970E-4,7.397499681E-2
5.522534380E-1,-1.374999993E-4,5.499999970E-4,7.081250101E-2
5.547540610E-1,-1.374999993E-4,5.499999970E-4,6.861250103E-2
5.572546020E-1,-2.199999988E-3,-5.499999970E-4,6.655000150E-2
5.597549860E-1,-1.099999994E-3,1.649999991E-3,6.655000150E-2
5.622555230E-1,-1.099999994E-3,-1.649999991E-3,6.544999778E-2
5.647559090E-1,-1.099999994E-3,1.649999991E-3,6.228749827E-2
5.672565370E-1,-1.374999993E-4,-5.499999970E-4,5.912499875E-2
5.697570770E-1,3.162499983E-3,1.649999991E-3,5.802499875E-2
5.722574620E-1,9.624999948E-4,1.649999991E-3,5.582499877E-2
5.747579980E-1,2.062499989E-3,5.499999970E-4,5.376249924E-2
5.772585950E-1,9.624999948E-4,2.612499986E-3,5.266249925E-2
5.797589810E-1,2.062499989E-3,-5.499999970E-4,5.156249925E-2
5.822595180E-1,-1.099999994E-3,-1.649999991E-3,4.633750021E-2
5.847599040E-1,-1.099999994E-3,-5.499999970E-4,4.317500070E-2
5.872605180E-1,-1.374999993E-4,-5.499999970E-4,3.671250120E-2
5.897610580E-1,9.624999948E-4,5.499999970E-4,3.355000168E-2
5.922614430E-1,9.624999948E-4,1.649999991E-3,3.244999796E-2
5.947619790E-1,9.624999948E-4,2.612499986E-3,2.818750031E-2
5.972625950E-1,9.624999948E-4,3.712499980E-3,2.282499894E-2
5.997629810E-1,9.624999948E-4,-5.499999970E-4,1.869999990E-2
6.022635180E-1,-1.099999994E-3,1.649999991E-3,1.223750040E-2
6.047639040E-1,-1.099999994E-3,-5.499999970E-4,7.974999957E-3
6.072645180E-1,-1.099999994E-3,-1.649999991E-3,5.912499968E-3
6.097650480E-1,-1.099999994E-3,5.499999970E-4,5.499999970E-4
6.122654330E-1,-1.374999993E-4,-5.499999970E-4,-4.812499974E-3
6.147659690E-1,-1.374999993E-4,2.612499986E-3,-4.812499974E-3
6.172665850E-1,9.624999948E-4,5.499999970E-4,-1.003750041E-2
6.197669710E-1,9.624999948E-4,5.499999970E-4,-1.429999992E-2
6.222675080E-1,2.062499989E-3,1.649999991E-3,-1.966249943E-2
6.247678940E-1,9.624999948E-4,5.499999970E-4,-2.392499894E-2
6.272685080E-1,9.624999948E-4,-5.499999970E-4,-2.502499893E-2
6.297688170E-1,-1.374999993E-4,-5.499999970E-4,-2.818750031E-2
6.322694310E-1,-1.374999993E-4,-5.499999970E-4,-3.244999796E-2
6.347699690E-1,-1.099999994E-3,-5.499999970E-4,-3.451250121E-2
6.372705850E-1,-1.374999993E-4,-2.612499986E-3,-3.877500072E-2
6.397708940E-1,9.624999948E-4,5.499999970E-4,-4.303750023E-2
6.422714940E-1,2.062499989E-3,-5.499999970E-4,-4.729999974E-2
6.447718800E-1,9.624999948E-4,5.499999970E-4,-5.266249925E-2
6.472724170E-1,-1.374999993E-4,1.649999991E-3,-5.376249924E-2
6.497728040E-1,-1.374999993E-4,5.499999970E-4,-5.802499875E-2
6.522734220E-1,-1.099999994E-3,-5.499999970E-4,-6.118749827E-2
6.547739620E-1,-2.199999988E-3,-1.649999991E-3,-6.228749827E-2
6.572743470E-1,-1.099999994E-3,-2.612499986E-3,-6.655000150E-2
6.597748830E-1,-1.099999994E-3,5.499999970E-4,-6.861250103E-2
6.622755140E-1,-1.099999994E-3,5.499999970E-4,-6.971249729E-2
6.647759000E-1,9.624999948E-4,-5.499999970E-4,-7.177499682E-2
6.672764370E-1,9.624999948E-4,-5.499999970E-4,-6.971249729E-2
6.697768240E-1,2.062499989E-3,1.649999991E-3,-7.081250101E-2
6.722774420E-1,2.062499989E-3,-1.649999991E-3,-7.397499681E-2
6.747779820E-1,-1.099999994E-3,5.499999970E-4,-7.287500054E-2
6.772783670E-1,-1.374999993E-4,-1.649999991E-3,-7.177499682E-2
6.797789040E-1,-1.374999993E-4,-5.499999970E-4,-7.287500054E-2
6.822795190E-1,2.062499989E-3,-1.649999991E-3,-7.081250101E-2
6.847799300E-1,9.624999948E-4,-3.712499980E-3,-7.081250101E-2
6.872804660E-1,-1.374999993E-4,-2.612499986E-3,-7.177499682E-2
6.897810810E-1,9.624999948E-4,-5.499999970E-4,-7.177499682E-2
6.922814680E-1,9.624999948E-4,1.649999991E-3,-7.287500054E-2
6.947819900E-1,9.624999948E-4,5.499999970E-4,-7.081250101E-2
6.972823770E-1,9.624999948E-4,5.499999970E-4,-6.971249729E-2
6.997829900E-1,-1.099999994E-3,-5.499999970E-4,-6.971249729E-2
7.022835310E-1,-1.099999994E-3,-5.499999970E-4,-6.861250103E-2
7.047839060E-1,-1.099999994E-3,-1.649999991E-3,-6.655000150E-2
7.072844420E-1,-1.099999994E-3,-1.649999991E-3,-6.435000151E-2
7.097848290E-1,-1.374999993E-4,-1.649999991E-3,-6.118749827E-2
7.122853650E-1,9.624999948E-4,5.499999970E-4,-5.898749828E-2
7.147859860E-1,9.624999948E-4,1.649999991E-3,-5.486249924E-2
7.172863720E-1,2.062499989E-3,1.649999991E-3,-5.266249925E-2
7.197869090E-1,9.624999948E-4,1.649999991E-3,-4.839999974E-2
7.222872950E-1,-1.374999993E-4,5.499999970E-4,-4.413750023E-2
7.247878850E-1,2.062499989E-3,-1.649999991E-3,-3.877500072E-2
7.272884250E-1,9.624999948E-4,-1.649999991E-3,-3.671250120E-2
7.297888100E-1,9.624999948E-4,-5.499999970E-4,-3.244999796E-2
7.322893460E-1,9.624999948E-4,-1.649999991E-3,-2.928750031E-2
7.347899620E-1,-1.374999993E-4,-5.499999970E-4,-2.502499893E-2
7.372903480E-1,2.062499989E-3,-1.649999991E-3,-2.186249942E-2
7.397908850E-1,9.624999948E-4,5.499999970E-4,-1.759999990E-2
7.422912710E-1,-1.374999993E-4,5.499999970E-4,-1.429999992E-2
7.447918850E-1,3.162499983E-3,1.649999991E-3,-1.113750041E-2
7.472924390E-1,2.062499989E-3,2.612499986E-3,-7.974999957E-3
7.497928240E-1,-1.099999994E-3,1.649999991E-3,-4.812499974E-3
7.522933600E-1,-1.374999993E-4,5.499999970E-4,-5.499999970E-4
7.547939760E-1,-2.199999988E-3,-5.499999970E-4,5.912499968E-3
7.572943620E-1,-1.099999994E-3,-1.649999991E-3,7.974999957E-3
7.597948990E-1,-1.099999994E-3,5.499999970E-4,1.223750040E-2
7.622952850E-1,9.624999948E-4,5.499999970E-4,1.759999990E-2
7.647958990E-1,2.062499989E-3,3.712499980E-3,2.076249942E-2
7.672964490E-1,3.162499983E-3,1.649999991E-3,2.612499893E-2
7.697968340E-1,2.062499989E-3,2.612499986E-3,3.244999796E-2
7.722973700E-1,2.062499989E-3,1.649999991E-3,3.781250119E-2
7.747979860E-1,9.624999948E-4,-1.649999991E-3,3.891250119E-2
7.772983720E-1,9.624999948E-4,5.499999970E-4,4.317500070E-2
7.797989090E-1,9.624999948E-4,-2.612499986E-3,4.413750023E-2
7.822992950E-1,9.624999948E-4,-5.499999970E-4,4.743750021E-2
7.847999090E-1,2.062499989E-3,2.612499986E-3,5.156249925E-2
7.873002220E-1,9.624999948E-4,-5.499999970E-4,5.486249924E-2
7.898008360E-1,9.624999948E-4,2.612499986E-3,5.802499875E-2
7.923013740E-1,9.624999948E-4,5.499999970E-4,5.802499875E-2
7.948019900E-1,2.062499989E-3,-5.499999970E-4,6.008749828E-2
7.973022990E-1,9.624999948E-4,1.649999991E-3,6.118749827E-2
7.998029130E-1,-1.374999993E-4,5.499999970E-4,6.338749826E-2
8.023032990E-1,9.624999948E-4,5.499999970E-4,6.544999778E-2
8.048038360E-1,-1.374999993E-4,-5.499999970E-4,6.544999778E-2
8.073042180E-1,-1.374999993E-4,5.499999970E-4,6.971249729E-2
8.098048310E-1,9.624999948E-4,1.649999991E-3,6.971249729E-2
8.123053710E-1,2.062499989E-3,1.649999991E-3,7.191249728E-2
8.148057560E-1,9.624999948E-4,2.612499986E-3,7.397499681E-2
8.173062920E-1,2.062499989E-3,2.612499986E-3,7.507500052E-2
8.198069080E-1,9.624999948E-4,5.499999970E-4,7.287500054E-2
8.223072940E-1,9.624999948E-4,-5.499999970E-4,7.713750005E-2
8.248078310E-1,9.624999948E-4,5.499999970E-4,7.713750005E-2
8.273082180E-1,9.624999948E-4,5.499999970E-4,7.603749633E-2
8.298088210E-1,9.624999948E-4,-5.499999970E-4,7.507500052E-2
8.323093610E-1,2.062499989E-3,5.499999970E-4,7.287500054E-2
8.348097460E-1,9.624999948E-4,1.649999991E-3,7.191249728E-2
8.373102830E-1,9.624999948E-4,5.499999970E-4,6.971249729E-2
8.398108780E-1,9.624999948E-4,5.499999970E-4,6.861250103E-2
8.423112650E-1,-1.374999993E-4,2.612499986E-3,6.544999778E-2
8.448118010E-1,9.624999948E-4,-5.499999970E-4,6.338749826E-2
8.473121880E-1,-1.374999993E-4,5.499999970E-4,6.008749828E-2
8.498128010E-1,9.624999948E-4,1.649999991E-3,5.692499876E-2
8.523133410E-1,-1.374999993E-4,5.499999970E-4,5.486249924E-2
8.548137260E-1,-1.374999993E-4,5.499999970E-4,5.156249925E-2
8.573142630E-1,-1.374999993E-4,5.499999970E-4,4.839999974E-2
8.598146490E-1,-1.099999994E-3,1.649999991E-3,4.839999974E-2
8.623152630E-1,2.062499989E-3,1.649999991E-3,4.743750021E-2
8.648158030E-1,9.624999948E-4,1.649999991E-3,4.413750023E-2
8.673161880E-1,3.162499983E-3,1.649999991E-3,4.207500070E-2
8.698167240E-1,2.062499989E-3,5.499999970E-4,3.671250120E-2
8.723173550E-1,2.062499989E-3,-5.499999970E-4,3.561250120E-2
8.748177410E-1,9.624999948E-4,-5.499999970E-4,2.818750031E-2
8.773182780E-1,9.624999948E-4,-5.499999970E-4,2.502499893E-2
8.798186640E-1,-1.374999993E-4,5.499999970E-4,2.076249942E-2
8.823192010E-1,2.062499989E-3,-5.499999970E-4,1.649999991E-2
8.848198160E-1,-1.374999993E-4,1.649999991E-3,1.333750039E-2
8.873202030E-1,9.624999948E-4,1.649999991E-3,7.974999957E-3
8.898207390E-1,9.624999948E-4,5.499999970E-4,1.649999991E-3
8.923211260E-1,-1.374999993E-4,-5.499999970E-4,-1.649999991E-3
8.948217630E-1,-1.374999993E-4,5.499999970E-4,-9.074999951E-3
8.973223040E-1,9.624999948E-4,5.499999970E-4,-1.223750040E-2
8.998226880E-1,-1.374999993E-4,-5.499999970E-4,-1.539999992E-2
9.023232250E-1,9.624999948E-4,-5.499999970E-4,-1.966249943E-2
9.048238400E-1,9.624999948E-4,5.499999970E-4,-2.282499894E-2
9.073242220E-1,9.624999948E-4,-1.649999991E-3,-2.708750032E-2
9.098247580E-1,9.624999948E-4,-5.499999970E-4,-2.928750031E-2
9.123251450E-1,2.062499989E-3,-5.499999970E-4,-3.355000168E-2
9.148257580E-1,2.062499989E-3,5.499999970E-4,-3.561250120E-2
9.173262990E-1,2.062499989E-3,-5.499999970E-4,-3.781250119E-2
9.198266830E-1,2.062499989E-3,-5.499999970E-4,-3.987500072E-2
9.223272200E-1,2.062499989E-3,5.499999970E-4,-4.413750023E-2
9.248278350E-1,2.062499989E-3,-1.649999991E-3,-4.839999974E-2
9.273282170E-1,9.624999948E-4,-1.649999991E-3,-5.059999973E-2
9.298287530E-1,2.062499989E-3,-5.499999970E-4,-5.266249925E-2
9.323291400E-1,-1.374999993E-4,-5.499999970E-4,-5.582499877E-2
9.348297530E-1,9.624999948E-4,5.499999970E-4,-6.008749828E-2
9.373300630E-1,2.062499989E-3,1.649999991E-3,-6.228749827E-2
9.398306810E-1,-1.374999993E-4,5.499999970E-4,-6.751249731E-2
9.423312200E-1,-1.374999993E-4,-1.649999991E-3,-6.971249729E-2
9.448318350E-1,9.624999948E-4,-5.499999970E-4,-6.971249729E-2
9.473321450E-1,-2.199999988E-3,-5.499999970E-4,-7.081250101E-2
9.498327580E-1,9.624999948E-4,-5.499999970E-4,-7.397499681E-2
9.523331450E-1,-1.374999993E-4,-5.499999970E-4,-7.287500054E-2
9.548336810E-1,9.624999948E-4,-1.649999991E-3,-7.397499681E-2
9.573342970E-1,9.624999948E-4,-1.649999991E-3,-7.507500052E-2
9.598346590E-1,-1.374999993E-4,5.499999970E-4,-7.177499682E-2
9.623351960E-1,9.624999948E-4,1.649999991E-3,-7.287500054E-2
9.648355830E-1,9.624999948E-4,-5.499999970E-4,-7.287500054E-2
9.673361960E-1,2.062499989E-3,1.649999991E-3,-7.081250101E-2
9.698367410E-1,3.162499983E-3,5.499999970E-4,-6.751249731E-2
9.723371260E-1,2.062499989E-3,-5.499999970E-4,-6.751249731E-2
9.748376620E-1,-1.374999993E-4,5.499999970E-4,-6.655000150E-2
9.773382780E-1,-1.374999993E-4,-1.649999991E-3,-6.751249731E-2
9.798386590E-1,-1.099999994E-3,-1.649999991E-3,-6.861250103E-2
9.823391960E-1,-1.374999993E-4,-5.499999970E-4,-6.324999779E-2
9.848395830E-1,-1.374999993E-4,5.499999970E-4,-6.435000151E-2
9.873401960E-1,9.624999948E-4,5.499999970E-4,-6.228749827E-2
9.898407450E-1,2.062499989E-3,-5.499999970E-4,-6.228749827E-2
9.923411300E-1,-1.374999993E-4,-5.499999970E-4,-5.898749828E-2
9.948416660E-1,-1.374999993E-4,-1.649999991E-3,-5.582499877E-2
9.973422820E-1,-1.099999994E-3,-5.499999970E-4,-5.266249925E-2
9.998426690E-1,-1.374999993E-4,5.499999970E-4,-5.059999973E-2
1.002343216E0,9.624999948E-4,5.499999970E-4,-4.413750023E-2
1.004843603E0,9.624999948E-4,5.499999970E-4,-4.207500070E-2
1.007344216E0,9.624999948E-4,-5.499999970E-4,-3.561250120E-2
1.009844756E0,9.624999948E-4,5.499999970E-4,-3.244999796E-2
1.012345155E0,2.062499989E-3,5.499999970E-4,-3.038750030E-2
1.014845692E0,9.624999948E-4,1.649999991E-3,-2.502499893E-2
1.017346307E0,9.624999948E-4,5.499999970E-4,-1.966249943E-2
1.019846694E0,2.062499989E-3,5.499999970E-4,-1.539999992E-2
1.022347235E0,9.624999948E-4,5.499999970E-4,-1.113750041E-2
1.024847622E0,-1.374999993E-4,-1.649999991E-3,-1.003750041E-2
1.027348158E0,9.624999948E-4,-1.649999991E-3,-5.774999969E-3
1.029848545E0,-1.374999993E-4,-5.499999970E-4,-2.612499986E-3
1.032349168E0,9.624999948E-4,-1.649999991E-3,5.499999970E-4
1.034849709E0,9.624999948E-4,-5.499999970E-4,3.712499980E-3
1.037350093E0,9.624999948E-4,1.649999991E-3,6.874999963E-3
1.039850630E0,2.062499989E-3,-5.499999970E-4,1.223750040E-2
1.042351230E0,9.624999948E-4,-5.499999970E-4,1.443750039E-2
1.044851617E0,-2.199999988E-3,-5.499999970E-4,2.076249942E-2
1.047352153E0,-1.099999994E-3,-5.499999970E-4,2.392499894E-2
1.049852540E0,9.624999948E-4,-5.499999970E-4,2.708750032E-2
1.052353144E0,9.624999948E-4,-5.499999970E-4,3.038750030E-2
1.054853685E0,-1.374999993E-4,-5.499999970E-4,3.671250120E-2
1.057354069E0,-1.374999993E-4,1.649999991E-3,4.097500071E-2
1.059854606E0,9.624999948E-4,1.649999991E-3,4.633750021E-2
1.062355221E0,9.624999948E-4,1.649999991E-3,4.839999974E-2
1.064855627E0,9.624999948E-4,1.649999991E-3,5.059999973E-2
1.067356163E0,9.624999948E-4,5.499999970E-4,5.486249924E-2
1.069856550E0,2.062499989E-3,5.499999970E-4,5.912499875E-2
1.072357163E0,9.624999948E-4,1.649999991E-3,6.008749828E-2
1.074857704E0,-1.099999994E-3,-5.499999970E-4,6.228749827E-2
1.077358088E0,-1.374999993E-4,5.499999970E-4,6.338749826E-2
1.079858625E0,2.062499989E-3,-1.649999991E-3,6.435000151E-2
1.082359240E0,9.624999948E-4,-5.499999970E-4,6.544999778E-2
1.084859598E0,-1.374999993E-4,5.499999970E-4,6.655000150E-2
1.087360134E0,9.624999948E-4,5.499999970E-4,6.764999777E-2
1.089860521E0,-1.374999993E-4,1.649999991E-3,6.764999777E-2
1.092361134E0,2.062499989E-3,5.499999970E-4,6.971249729E-2
1.094861449E0,-1.374999993E-4,-1.649999991E-3,7.191249728E-2
1.097362062E0,-1.374999993E-4,5.499999970E-4,7.191249728E-2
1.099862601E0,-2.199999988E-3,-1.649999991E-3,7.287500054E-2
1.102363216E0,-1.374999993E-4,-1.649999991E-3,7.287500054E-2
1.104863511E0,9.624999948E-4,-5.499999970E-4,7.397499681E-2
1.107364124E0,9.624999948E-4,5.499999970E-4,7.287500054E-2
1.109864511E0,2.062499989E-3,1.649999991E-3,7.397499681E-2
1.112365047E0,9.624999948E-4,1.649999991E-3,7.397499681E-2
1.114865449E0,-1.099999994E-3,1.649999991E-3,7.081250101E-2
1.117366062E0,2.062499989E-3,-5.499999970E-4,7.081250101E-2
1.119866603E0,-1.099999994E-3,-5.499999970E-4,6.861250103E-2
1.122366987E0,9.624999948E-4,1.649999991E-3,6.764999777E-2
1.124867524E0,-1.374999993E-4,-5.499999970E-4,6.338749826E-2
1.127368144E0,-1.099999994E-3,5.499999970E-4,6.008749828E-2
1.129868531E0,-1.374999993E-4,-5.499999970E-4,5.802499875E-2
1.132369067E0,9.624999948E-4,5.499999970E-4,5.486249924E-2
1.134869454E0,-1.099999994E-3,1.649999991E-3,5.059999973E-2
1.137370062E0,9.624999948E-4,-5.499999970E-4,4.949999973E-2
1.139870603E0,-1.374999993E-4,5.499999970E-4,4.523750022E-2
1.142370988E0,9.624999948E-4,-5.499999970E-4,4.413750023E-2
1.144871524E0,-1.374999993E-4,5.499999970E-4,4.097500071E-2
1.147372148E0,-1.099999994E-3,-5.499999970E-4,3.781250119E-2
1.149872535E0,-1.099999994E-3,-5.499999970E-4,3.244999796E-2
1.152373071E0,-1.374999993E-4,-5.499999970E-4,3.038750030E-2
1.154873458E0,-1.099999994E-3,5.499999970E-4,2.612499893E-2
1.157374072E0,9.624999948E-4,5.499999970E-4,2.392499894E-2
1.159874617E0,9.624999948E-4,1.649999991E-3,2.076249942E-2
1.162375002E0,-1.099999994E-3,2.612499986E-3,1.649999991E-2
1.164875538E0,9.624999948E-4,5.499999970E-4,1.333750039E-2
1.167375925E0,-1.374999993E-4,-5.499999970E-4,5.912499968E-3
1.169876538E0,9.624999948E-4,-1.649999991E-3,3.712499980E-3
1.172377079E0,9.624999948E-4,5.499999970E-4,-1.649999991E-3
1.174877463E0,-1.099999994E-3,-1.649999991E-3,-7.974999957E-3
1.177378000E0,-1.374999993E-4,5.499999970E-4,-1.113750041E-2
1.179878615E0,-1.374999993E-4,-2.612499986E-3,-1.649999991E-2
1.182379016E0,-1.374999993E-4,-5.499999970E-4,-2.076249942E-2
1.184879552E0,9.624999948E-4,-1.649999991E-3,-2.392499894E-2
1.187379939E0,9.624999948E-4,-1.649999991E-3,-2.818750031E-2
1.189880475E0,-1.099999994E-3,-5.499999970E-4,-3.244999796E-2
1.192381077E0,9.624999948E-4,-5.499999970E-4,-3.244999796E-2
1.194881463E0,-2.199999988E-3,-1.649999991E-3,-3.877500072E-2
1.197382000E0,-1.374999993E-4,-2.612499986E-3,-3.987500072E-2
1.199882386E0,-2.199999988E-3,-1.649999991E-3,-4.303750023E-2
1.202382995E0,-1.374999993E-4,5.499999970E-4,-4.633750021E-2
1.204883535E0,-1.374999993E-4,-5.499999970E-4,-4.949999973E-2
1.207383920E0,-1.374999993E-4,-5.499999970E-4,-5.266249925E-2
1.209884456E0,-1.099999994E-3,5.499999970E-4,-5.486249924E-2
1.212385072E0,-1.374999993E-4,5.499999970E-4,-5.582499877E-2
1.214885458E0,-1.374999993E-4,-1.649999991E-3,-6.118749827E-2
1.217385995E0,-1.099999994E-3,-5.499999970E-4,-6.228749827E-2
1.219886381E0,-1.374999993E-4,-5.499999970E-4,-6.655000150E-2
1.222386995E0,-1.099999994E-3,-5.499999970E-4,-6.861250103E-2
1.224887299E0,-1.374999993E-4,-1.649999991E-3,-7.177499682E-2
1.227387913E0,-1.099999994E-3,-1.649999991E-3,-7.177499682E-2
1.229888451E0,-1.374999993E-4,-5.499999970E-4,-7.177499682E-2
1.232389067E0,-1.099999994E-3,-5.499999970E-4,-7.507500052E-2
1.234889453E0,-1.099999994E-3,-1.649999991E-3,-7.397499681E-2
1.237389976E0,-1.374999993E-4,-5.499999970E-4,-7.507500052E-2
1.239890362E0,9.624999948E-4,-5.499999970E-4,-7.507500052E-2
1.242390976E0,-1.374999993E-4,1.649999991E-3,-7.397499681E-2
1.244891516E0,-1.374999993E-4,-1.649999991E-3,-7.507500052E-2
1.247391920E0,-2.199999988E-3,-2.612499986E-3,-7.287500054E-2
1.249892456E0,-1.099999994E-3,-5.499999970E-4,-7.287500054E-2
1.252393072E0,-1.099999994E-3,-2.612499986E-3,-6.971249729E-2
1.254893381E0,-1.374999993E-4,-1.649999991E-3,-6.861250103E-2
1.257394029E0,2.062499989E-3,5.499999970E-4,-6.751249731E-2
1.259894415E0,-1.099999994E-3,5.499999970E-4,-6.861250103E-2
1.262394952E0,9.624999948E-4,5.499999970E-4,-6.435000151E-2
1.264895339E0,-1.374999993E-4,-5.499999970E-4,-6.435000151E-2
1.267395952E0,-1.374999993E-4,-1.649999991E-3,-6.118749827E-2
1.269896506E0,-1.374999993E-4,-2.612499986E-3,-6.228749827E-2
1.272396891E0,-1.099999994E-3,1.649999991E-3,-5.802499875E-2
1.274897427E0,-1.374999993E-4,-1.649999991E-3,-5.802499875E-2
1.277398043E0,-1.099999994E-3,-1.649999991E-3,-5.376249924E-2
1.279898424E0,-1.374999993E-4,-2.612499986E-3,-5.156249925E-2
1.282398961E0,-1.374999993E-4,-5.499999970E-4,-4.633750021E-2
1.284899348E0,-1.099999994E-3,-1.649999991E-3,-4.207500070E-2
1.287399961E0,-1.099999994E-3,5.499999970E-4,-4.097500071E-2
1.289900487E0,-1.099999994E-3,5.499999970E-4,-3.561250120E-2
1.292400872E0,-1.374999993E-4,-1.649999991E-3,-3.038750030E-2
1.294901409E0,9.624999948E-4,5.499999970E-4,-2.818750031E-2
1.297402024E0,9.624999948E-4,-1.649999991E-3,-2.282499894E-2
1.299902416E0,-1.374999993E-4,-5.499999970E-4,-1.966249943E-2
1.302402952E0,-1.099999994E-3,-5.499999970E-4,-1.333750039E-2
1.304903339E0,-1.374999993E-4,-5.499999970E-4,-9.074999951E-3
1.307403952E0,-1.374999993E-4,1.649999991E-3,-6.874999963E-3
1.309904492E0,-1.099999994E-3,5.499999970E-4,-1.649999991E-3
1.312404877E0,2.062499989E-3,2.612499986E-3,5.499999970E-4
1.314905414E0,-1.374999993E-4,-1.649999991E-3,4.812499974E-3
1.317406029E0,-1.374999993E-4,-5.499999970E-4,1.017499994E-2
1.319906411E0,-1.099999994E-3,5.499999970E-4,1.223750040E-2
1.322406947E0,-1.099999994E-3,-1.649999991E-3,1.869999990E-2
1.324907334E0,-1.374999993E-4,5.499999970E-4,1.966249943E-2
1.327407947E0,-1.374999993E-4,-5.499999970E-4,2.282499894E-2
1.329908257E0,-1.374999993E-4,1.649999991E-3,2.928750031E-2
1.332408855E0,-1.374999993E-4,5.499999970E-4,3.135000169E-2
1.334909394E0,-1.374999993E-4,5.499999970E-4,3.464999795E-2
1.337409780E0,9.624999948E-4,5.499999970E-4,3.987500072E-2
1.339910317E0,-1.099999994E-3,-5.499999970E-4,4.523750022E-2
1.342410907E0,9.624999948E-4,-5.499999970E-4,4.633750021E-2
1.344911294E0,9.624999948E-4,5.499999970E-4,5.059999973E-2
1.347411830E0,-1.099999994E-3,-5.499999970E-4,5.376249924E-2
1.349912217E0,-1.374999993E-4,5.499999970E-4,5.692499876E-2
1.352412816E0,-1.374999993E-4,-5.499999970E-4,6.008749828E-2
1.354913357E0,2.062499989E-3,1.649999991E-3,6.228749827E-2
1.357413741E0,-1.099999994E-3,1.649999991E-3,6.655000150E-2
1.359914278E0,-1.374999993E-4,2.612499986E-3,6.861250103E-2
1.362414893E0,2.062499989E-3,2.612499986E-3,6.655000150E-2
1.364915289E0,-1.374999993E-4,5.499999970E-4,6.861250103E-2
1.367415825E0,-1.374999993E-4,-5.499999970E-4,6.764999777E-2
1.369916212E0,-1.374999993E-4,5.499999970E-4,6.971249729E-2
1.372416825E0,-1.374999993E-4,5.499999970E-4,7.191249728E-2
1.374917357E0,-1.374999993E-4,5.499999970E-4,7.081250101E-2
1.377417741E0,-1.374999993E-4,1.649999991E-3,7.191249728E-2
1.379918278E0,9.624999948E-4,5.499999970E-4,7.191249728E-2
1.382418893E0,-1.374999993E-4,1.649999991E-3,7.397499681E-2
1.384919280E0,-1.374999993E-4,1.649999991E-3,7.081250101E-2
1.387419816E0,-1.374999993E-4,5.499999970E-4,7.191249728E-2
1.389920203E0,-1.374999993E-4,-5.499999970E-4,7.287500054E-2
1.392420739E0,-1.374999993E-4,-5.499999970E-4,7.397499681E-2
1.394921355E0,2.062499989E-3,-5.499999970E-4,7.191249728E-2
1.397421755E0,-1.374999993E-4,-5.499999970E-4,7.191249728E-2
1.399922292E0,2.062499989E-3,5.499999970E-4,6.861250103E-2
1.402422678E0,-1.099999994E-3,5.499999970E-4,6.764999777E-2
1.404923292E0,-1.374999993E-4,-5.499999970E-4,6.655000150E-2
1.407423827E0,2.062499989E-3,5.499999970E-4,6.118749827E-2
1.409924212E0,-1.374999993E-4,-5.499999970E-4,6.008749828E-2
1.412424748E0,9.624999948E-4,2.612499986E-3,5.582499877E-2
1.414925364E0,-1.374999993E-4,1.649999991E-3,5.486249924E-2
1.417425731E0,-1.374999993E-4,5.499999970E-4,4.949999973E-2
1.419926268E0,-1.099999994E-3,5.499999970E-4,4.413750023E-2
1.422426655E0,9.624999948E-4,-5.499999970E-4,4.317500070E-2
1.424927191E0,-1.099999994E-3,5.499999970E-4,3.987500072E-2
1.427427801E0,9.624999948E-4,5.499999970E-4,3.891250119E-2
1.429928188E0,-1.374999993E-4,1.649999991E-3,3.464999795E-2
1.432428724E0,2.062499989E-3,-5.499999970E-4,3.135000169E-2
1.434929111E0,-1.374999993E-4,-1.649999991E-3,2.708750032E-2
1.437429710E0,-1.374999993E-4,1.649999991E-3,2.186249942E-2
1.439930251E0,-1.374999993E-4,5.499999970E-4,2.076249942E-2
1.442430636E0,-1.099999994E-3,-2.612499986E-3,1.759999990E-2
1.444931172E0,2.062499989E-3,5.499999970E-4,1.223750040E-2
1.447431787E0,9.624999948E-4,-1.649999991E-3,1.017499994E-2
1.449932116E0,9.624999948E-4,-5.499999970E-4,3.712499980E-3
1.452432730E0,-1.374999993E-4,5.499999970E-4,5.499999970E-4
1.454933116E0,9.624999948E-4,5.499999970E-4,-4.812499974E-3
1.457433730E0,2.062499989E-3,-5.499999970E-4,-1.003750041E-2
1.459934039E0,2.062499989E-3,5.499999970E-4,-1.333750039E-2
1.462434653E0,-1.374999993E-4,5.499999970E-4,-1.649999991E-2
1.464935191E0,9.624999948E-4,-5.499999970E-4,-2.392499894E-2
1.467435806E0,-1.374999993E-4,-5.499999970E-4,-2.502499893E-2
1.469936193E0,-1.374999993E-4,5.499999970E-4,-3.038750030E-2
1.472436740E0,-1.374999993E-4,-5.499999970E-4,-3.451250121E-2
1.474937126E0,-1.099999994E-3,-5.499999970E-4,-3.987500072E-2
1.477437740E0,-1.374999993E-4,5.499999970E-4,-4.097500071E-2
1.479938049E0,9.624999948E-4,1.649999991E-3,-4.523750022E-2
1.482438663E0,9.624999948E-4,-5.499999970E-4,-4.523750022E-2
1.484939215E0,-1.374999993E-4,5.499999970E-4,-4.729999974E-2
1.487439831E0,-1.374999993E-4,-1.649999991E-3,-5.156249925E-2
1.489940140E0,-1.374999993E-4,-5.499999970E-4,-5.266249925E-2
1.492440754E0,-1.374999993E-4,-5.499999970E-4,-5.582499877E-2
1.494941121E0,9.624999948E-4,-5.499999970E-4,-5.898749828E-2
1.497441735E0,9.624999948E-4,5.499999970E-4,-6.118749827E-2
1.499942044E0,2.062499989E-3,-5.499999970E-4,-6.118749827E-2
1.502442658E0,2.062499989E-3,5.499999970E-4,-6.655000150E-2
1.504943181E0,-1.374999993E-4,-5.499999970E-4,-6.655000150E-2
1.507443568E0,2.062499989E-3,-5.499999970E-4,-6.971249729E-2
1.509944104E0,-1.374999993E-4,5.499999970E-4,-7.177499682E-2
1.512444720E0,9.624999948E-4,-5.499999970E-4,-7.177499682E-2
1.514945106E0,-1.374999993E-4,-5.499999970E-4,-7.507500052E-2
1.517445673E0,9.624999948E-4,-5.499999970E-4,-7.397499681E-2
1.519946059E0,-1.374999993E-4,-5.499999970E-4,-7.507500052E-2
1.522446673E0,-2.199999988E-3,-1.649999991E-3,-7.603749633E-2
1.524947213E0,-1.099999994E-3,5.499999970E-4,-7.507500052E-2
1.527447617E0,-1.374999993E-4,-5.499999970E-4,-7.397499681E-2
1.529948153E0,9.624999948E-4,5.499999970E-4,-7.397499681E-2
1.532448540E0,-1.374999993E-4,5.499999970E-4,-7.081250101E-2
1.534949153E0,9.624999948E-4,-2.612499986E-3,-7.081250101E-2
1.537449694E0,-1.374999993E-4,-1.649999991E-3,-6.861250103E-2
1.539950078E0,9.624999948E-4,-1.649999991E-3,-6.655000150E-2
1.542450692E0,9.624999948E-4,-1.649999991E-3,-6.435000151E-2
1.544951232E0,9.624999948E-4,-2.612499986E-3,-6.118749827E-2
1.547451617E0,2.062499989E-3,-1.649999991E-3,-6.008749828E-2
1.549952158E0,-1.374999993E-4,-1.649999991E-3,-5.802499875E-2
1.552452774E0,9.624999948E-4,5.499999970E-4,-5.376249924E-2
1.554953160E0,9.624999948E-4,-5.499999970E-4,-5.266249925E-2
1.557453697E0,-1.374999993E-4,-5.499999970E-4,-5.266249925E-2
1.559954098E0,2.062499989E-3,5.499999970E-4,-4.949999973E-2
1.562454635E0,-1.374999993E-4,-5.499999970E-4,-4.523750022E-2
1.564955250E0,-1.374999993E-4,5.499999970E-4,-4.303750023E-2
1.567455637E0,9.624999948E-4,5.499999970E-4,-3.877500072E-2
1.569956158E0,-1.374999993E-4,5.499999970E-4,-3.451250121E-2
1.572456545E0,9.624999948E-4,5.499999970E-4,-3.244999796E-2
1.574957081E0,-1.374999993E-4,-5.499999970E-4,-2.818750031E-2
1.577457697E0,-1.374999993E-4,5.499999970E-4,-2.392499894E-2
1.579958060E0,9.624999948E-4,-1.649999991E-3,-2.076249942E-2
1.582458596E0,9.624999948E-4,5.499999970E-4,-1.429999992E-2
1.584958983E0,9.624999948E-4,-5.499999970E-4,-9.074999951E-3
1.587459596E0,-1.374999993E-4,-5.499999970E-4,-4.812499974E-3
1.589960136E0,9.624999948E-4,-1.649999991E-3,-5.499999970E-4
1.592460507E0,-1.374999993E-4,-1.649999991E-3,3.712499980E-3
1.594961044E0,9.624999948E-4,-5.499999970E-4,6.874999963E-3
1.597461659E0,9.624999948E-4,-1.649999991E-3,1.113750041E-2
1.599962046E0,2.062499989E-3,1.649999991E-3,1.443750039E-2
1.602462582E0,9.624999948E-4,5.499999970E-4,1.759999990E-2
1.604962969E0,-1.099999994E-3,-5.499999970E-4,2.282499894E-2
1.607463582E0,9.624999948E-4,1.649999991E-3,2.392499894E-2
1.609964123E0,9.624999948E-4,-1.649999991E-3,2.928750031E-2
1.612464507E0,-1.374999993E-4,1.649999991E-3,3.135000169E-2
1.614965072E0,-1.099999994E-3,5.499999970E-4,3.464999795E-2
1.617465687E0,-1.374999993E-4,1.649999991E-3,3.781250119E-2
1.619966074E0,-1.374999993E-4,2.612499986E-3,4.207500070E-2
1.622466610E0,-1.374999993E-4,1.649999991E-3,4.743750021E-2
1.624966983E0,9.624999948E-4,5.499999970E-4,5.156249925E-2
1.627467596E0,9.624999948E-4,1.649999991E-3,5.376249924E-2
1.629968137E0,-1.374999993E-4,1.649999991E-3,5.376249924E-2
1.632468521E0,9.624999948E-4,5.499999970E-4,5.912499875E-2
1.634969053E0,9.624999948E-4,-5.499999970E-4,6.118749827E-2
1.637469439E0,-1.374999993E-4,-5.499999970E-4,6.338749826E-2
1.639970053E0,9.624999948E-4,5.499999970E-4,6.655000150E-2
1.642470593E0,9.624999948E-4,5.499999970E-4,6.764999777E-2
1.644970964E0,9.624999948E-4,5.499999970E-4,6.655000150E-2
1.647471500E0,-1.374999993E-4,-5.499999970E-4,6.544999778E-2
1.649971887E0,3.162499983E-3,1.649999991E-3,6.544999778E-2
1.652472500E0,9.624999948E-4,1.649999991E-3,6.655000150E-2
1.654973041E0,9.624999948E-4,5.499999970E-4,6.655000150E-2
1.657473415E0,-1.374999993E-4,1.649999991E-3,6.655000150E-2
1.659973952E0,9.624999948E-4,1.649999991E-3,6.435000151E-2
1.662474567E0,9.624999948E-4,-5.499999970E-4,6.338749826E-2
1.664974954E0,-1.374999993E-4,2.612499986E-3,6.008749828E-2
1.667475509E0,-1.374999993E-4,5.499999970E-4,5.912499875E-2
1.669975896E0,9.624999948E-4,1.649999991E-3,5.912499875E-2
1.672476509E0,-1.374999993E-4,-5.499999970E-4,5.486249924E-2
1.674977050E0,-1.374999993E-4,-5.499999970E-4,5.266249925E-2
1.677477434E0,-1.099999994E-3,5.499999970E-4,4.839999974E-2
1.679977991E0,9.624999948E-4,1.649999991E-3,4.949999973E-2
1.682478606E0,-1.374999993E-4,5.499999970E-4,4.413750023E-2
1.684978993E0,9.624999948E-4,-5.499999970E-4,4.097500071E-2
1.687479529E0,-1.374999993E-4,-5.499999970E-4,3.781250119E-2
1.689979895E0,-1.374999993E-4,5.499999970E-4,3.464999795E-2
1.692480508E0,-1.374999993E-4,-1.649999991E-3,3.135000169E-2
1.694981049E0,-1.374999993E-4,-5.499999970E-4,2.818750031E-2
1.697481433E0,-1.374999993E-4,-1.649999991E-3,2.186249942E-2
1.699981956E0,2.062499989E-3,-5.499999970E-4,1.869999990E-2
1.702482571E0,2.062499989E-3,5.499999970E-4,1.869999990E-2
1.704982881E0,9.624999948E-4,5.499999970E-4,1.333750039E-2
1.707483494E0,9.624999948E-4,5.499999970E-4,1.017499994E-2
1.709983866E0,9.624999948E-4,-2.612499986E-3,7.974999957E-3
1.712484479E0,-1.374999993E-4,1.649999991E-3,4.812499974E-3
1.714984789E0,9.624999948E-4,-5.499999970E-4,5.499999970E-4
1.717485402E0,-1.374999993E-4,5.499999970E-4,-5.499999970E-4
1.719985941E0,9.624999948E-4,5.499999970E-4,-5.774999969E-3
1.722486556E0,9.624999948E-4,2.612499986E-3,-5.774999969E-3
1.724986866E0,-1.374999993E-4,5.499999970E-4,-1.113750041E-2
1.727487479E0,-1.374999993E-4,-5.499999970E-4,-1.539999992E-2
1.729987857E0,9.624999948E-4,-1.649999991E-3,-1.649999991E-2
1.732488393E0,-1.374999993E-4,-1.649999991E-3,-2.282499894E-2
1.734988780E0,-1.374999993E-4,-5.499999970E-4,-2.502499893E-2
1.737489393E0,9.624999948E-4,-5.499999970E-4,-3.135000169E-2
1.739989934E0,-1.374999993E-4,-1.649999991E-3,-3.451250121E-2
1.742490333E0,-1.374999993E-4,5.499999970E-4,-3.781250119E-2
1.744990869E0,2.062499989E-3,-1.649999991E-3,-4.303750023E-2
1.747491484E0,9.624999948E-4,-5.499999970E-4,-4.729999974E-2
1.749991871E0,9.624999948E-4,-5.499999970E-4,-5.156249925E-2
1.752492408E0,3.162499983E-3,5.499999970E-4,-5.802499875E-2
1.754992794E0,-1.374999993E-4,-5.499999970E-4,-6.008749828E-2
1.757493408E0,-1.374999993E-4,5.499999970E-4,-6.435000151E-2
1.759993948E0,9.624999948E-4,-5.499999970E-4,-6.861250103E-2
1.762494333E0,-1.099999994E-3,-5.499999970E-4,-7.287500054E-2
1.764994888E0,-1.374999993E-4,-5.499999970E-4,-7.507500052E-2
1.767495275E0,-1.374999993E-4,-5.499999970E-4,-7.933750004E-2
1.769995888E0,9.624999948E-4,-5.499999970E-4,-8.249999583E-2
1.772496429E0,-1.099999994E-3,-5.499999970E-4,-8.456250280E-2
1.774996804E0,-1.099999994E-3,-5.499999970E-4,-8.772499859E-2
1.777497418E0,2.062499989E-3,5.499999970E-4,-8.992499858E-2
1.779997958E0,-1.374999993E-4,-5.499999970E-4,-9.308750182E-2
1.782498343E0,-1.374999993E-4,-5.499999970E-4,-9.735000134E-2
1.784998835E0,9.624999948E-4,-1.649999991E-3,-9.955000132E-2
1.787499222E0,9.624999948E-4,-1.649999991E-3,-1.038125008E-1
1.789999835E0,2.062499989E-3,-5.499999970E-4,-1.027124971E-1
1.792500376E0,-1.374999993E-4,-1.649999991E-3,-1.058750004E-1
1.795000775E0,-1.374999993E-4,-2.612499986E-3,-1.058750004E-1
1.797501312E0,-1.374999993E-4,-2.612499986E-3,-1.080750003E-1
1.800001927E0,-1.374999993E-4,-1.649999991E-3,-1.112374961E-1
1.802502314E0,-1.374999993E-4,-1.649999991E-3,-1.155000031E-1
1.805002850E0,9.624999948E-4,-1.649999991E-3,-1.143999994E-1
1.807503256E0,2.062499989E-3,-1.649999991E-3,-1.175625026E-1
1.810003792E0,-1.374999993E-4,-5.499999970E-4,-1.218250021E-1
1.812504408E0,-1.099999994E-3,-5.499999970E-4,-1.229249984E-1
1.815004794E0,-1.374999993E-4,5.499999970E-4,-1.249874979E-1
1.817505345E0,-1.099999994E-3,5.499999970E-4,-1.271875054E-1
1.820005731E0,-1.374999993E-4,-1.649999991E-3,-1.292500049E-1
1.822506268E0,-1.374999993E-4,-1.649999991E-3,-1.314499974E-1
1.825006883E0,-1.374999993E-4,5.499999970E-4,-1.335124969E-1
1.827507270E0,-1.099999994E-3,-5.499999970E-4,-1.377750039E-1
1.830007806E0,-1.374999993E-4,-2.612499986E-3,-1.399749964E-1
1.832508422E0,-1.099999994E-3,-2.612499986E-3,-1.409374923E-1
1.835008808E0,-1.099999994E-3,-2.612499986E-3,-1.420374960E-1
1.837509326E0,-1.374999993E-4,-2.612499986E-3,-1.463000029E-1
1.840009712E0,-1.374999993E-4,-2.612499986E-3,-1.484999955E-1
1.842510326E0,9.624999948E-4,-5.499999970E-4,-1.484999955E-1
1.845010636E0,-1.374999993E-4,-1.649999991E-3,-1.527625024E-1
1.847511239E0,9.624999948E-4,-1.649999991E-3,-1.516624987E-1
1.850011777E0,9.624999948E-4,-1.649999991E-3,-1.537249982E-1
1.852512393E0,9.624999948E-4,-5.499999970E-4,-1.537249982E-1
1.855012779E0,9.624999948E-4,-5.499999970E-4,-1.537249982E-1
1.857513316E0,-1.374999993E-4,5.499999970E-4,-1.548250020E-1
1.860013723E0,9.624999948E-4,1.649999991E-3,-1.548250020E-1
1.862514337E0,9.624999948E-4,-5.499999970E-4,-1.559250057E-1
1.865014877E0,-1.099999994E-3,5.499999970E-4,-1.548250020E-1
1.867515262E0,-1.099999994E-3,-5.499999970E-4,-1.527625024E-1
1.870015812E0,-1.099999994E-3,-5.499999970E-4,-1.537249982E-1
1.872516199E0,-1.374999993E-4,5.499999970E-4,-1.548250020E-1
1.875016736E0,-1.374999993E-4,-1.649999991E-3,-1.537249982E-1
1.877517351E0,-1.099999994E-3,5.499999970E-4,-1.537249982E-1
1.880017752E0,-2.199999988E-3,-2.612499986E-3,-1.537249982E-1
1.882518288E0,-1.374999993E-4,-5.499999970E-4,-1.527625024E-1
1.885018675E0,-1.374999993E-4,-1.649999991E-3,-1.548250020E-1
1.887519211E0,-1.374999993E-4,-1.649999991E-3,-1.559250057E-1
1.890019812E0,-1.374999993E-4,-1.649999991E-3,-1.579875052E-1
1.892520199E0,9.624999948E-4,-1.649999991E-3,-1.590874940E-1
1.895020736E0,-1.374999993E-4,-5.499999970E-4,-1.611499935E-1
1.897521122E0,-1.374999993E-4,-1.649999991E-3,-1.601874977E-1
1.900021717E0,-1.374999993E-4,-5.499999970E-4,-1.622499973E-1
1.902522257E0,-1.099999994E-3,-1.649999991E-3,-1.654125005E-1
1.905022642E0,-2.199999988E-3,-5.499999970E-4,-1.687124968E-1
1.907523178E0,-1.374999993E-4,-5.499999970E-4,-1.676124930E-1
1.910023794E0,9.624999948E-4,-5.499999970E-4,-1.707749963E-1
1.912524180E0,-2.199999988E-3,5.499999970E-4,-1.739374995E-1
1.915024717E0,-2.199999988E-3,5.499999970E-4,-1.761374921E-1
1.917525103E0,-2.199999988E-3,-5.499999970E-4,-1.782000065E-1
1.920025717E0,-2.199999988E-3,-5.499999970E-4,-1.792999953E-1
1.922526286E0,-3.299999982E-3,-5.499999970E-4,-1.815000027E-1
1.925026671E0,-1.099999994E-3,5.499999970E-4,-1.824624985E-1
1.927527207E0,-3.299999982E-3,5.499999970E-4,-1.867250055E-1
1.930027823E0,-2.199999988E-3,5.499999970E-4,-1.878249943E-1
1.932528117E0,-1.374999993E-4,-5.499999970E-4,-1.878249943E-1
1.935028731E0,-3.299999982E-3,-2.612499986E-3,-1.889249980E-1
1.937529117E0,-2.199999988E-3,-5.499999970E-4,-1.878249943E-1
1.940029654E0,-1.099999994E-3,-1.649999991E-3,-1.867250055E-1
1.942530264E0,-1.374999993E-4,-5.499999970E-4,-1.857624948E-1
1.945030651E0,-1.099999994E-3,-5.499999970E-4,-1.857624948E-1
1.947531187E0,-1.374999993E-4,-5.499999970E-4,-1.835625023E-1
1.950031574E0,-1.374999993E-4,-5.499999970E-4,-1.824624985E-1
1.952532187E0,-1.099999994E-3,-1.649999991E-3,-1.792999953E-1
1.955032757E0,-1.099999994E-3,-5.499999970E-4,-1.739374995E-1
1.957533141E0,-1.099999994E-3,-5.499999970E-4,-1.718750000E-1
1.960033755E0,-1.374999993E-4,1.649999991E-3,-1.687124968E-1
1.962534064E0,-1.099999994E-3,5.499999970E-4,-1.654125005E-1
1.965034678E0,-2.199999988E-3,-5.499999970E-4,-1.644500047E-1
1.967535201E0,-1.374999993E-4,1.649999991E-3,-1.601874977E-1
1.970035588E0,-2.199999988E-3,5.499999970E-4,-1.559250057E-1
1.972536124E0,-2.199999988E-3,-5.499999970E-4,-1.548250020E-1
1.975036740E0,-3.299999982E-3,1.649999991E-3,-1.516624987E-1
1.977537131E0,-2.199999988E-3,5.499999970E-4,-1.484999955E-1
1.980037668E0,-1.099999994E-3,1.649999991E-3,-1.463000029E-1
1.982538054E0,-1.099999994E-3,-5.499999970E-4,-1.451999992E-1
1.985038668E0,-1.099999994E-3,-5.499999970E-4,-1.420374960E-1
1.987539208E0,-2.199999988E-3,-1.649999991E-3,-1.388749927E-1
1.990039593E0,-1.374999993E-4,-1.649999991E-3,-1.377750039E-1
1.992540129E0,-1.374999993E-4,5.499999970E-4,-1.335124969E-1
1.995040745E0,-1.099999994E-3,-5.499999970E-4,-1.292500049E-1
1.997541070E0,-1.374999993E-4,-5.499999970E-4,-1.271875054E-1
2.000041683E0,-1.099999994E-3,5.499999970E-4,-1.249874979E-1
2.002542070E0,-1.099999994E-3,-5.499999970E-4,-1.207249984E-1
2.005042683E0,-1.374999993E-4,5.499999970E-4,-1.164624989E-1
2.007542993E0,-1.374999993E-4,-1.649999991E-3,-1.155000031E-1
2.010043620E0,-1.374999993E-4,1.649999991E-3,-1.121999994E-1
2.012544158E0,-1.099999994E-3,5.499999970E-4,-1.090374961E-1
2.015044774E0,9.624999948E-4,1.649999991E-3,-1.069749966E-1
2.017545084E0,-1.374999993E-4,-5.499999970E-4,-1.038125008E-1
2.020045702E0,-1.099999994E-3,5.499999970E-4,-1.027124971E-1
2.022546089E0,-1.374999993E-4,1.649999991E-3,-9.844999760E-2
2.025046702E0,9.624999948E-4,5.499999970E-4,-9.418749809E-2
2.027547012E0,-1.374999993E-4,-5.499999970E-4,-9.198749810E-2
2.030047609E0,9.624999948E-4,-5.499999970E-4,-8.992499858E-2
2.032548148E0,-1.374999993E-4,-1.649999991E-3,-8.676250279E-2
2.035048763E0,-1.374999993E-4,5.499999970E-4,-8.249999583E-2
2.037549073E0,-1.374999993E-4,-1.649999991E-3,-8.249999583E-2
2.040049672E0,-1.374999993E-4,2.612499986E-3,-8.030000329E-2
2.042550059E0,-1.374999993E-4,5.499999970E-4,-7.823749632E-2
2.045050595E0,-1.374999993E-4,-5.499999970E-4,-7.603749633E-2
2.047550982E0,-1.374999993E-4,5.499999970E-4,-7.397499681E-2
2.050051581E0,2.062499989E-3,5.499999970E-4,-7.397499681E-2
2.052552122E0,9.624999948E-4,5.499999970E-4,-7.287500054E-2
2.055052506E0,9.624999948E-4,5.499999970E-4,-7.177499682E-2
2.057553043E0,9.624999948E-4,5.499999970E-4,-7.081250101E-2
2.060053682E0,2.062499989E-3,2.612499986E-3,-7.081250101E-2
2.062554069E0,-1.374999993E-4,5.499999970E-4,-7.081250101E-2
2.065054605E0,9.624999948E-4,5.499999970E-4,-7.081250101E-2
2.067554992E0,9.624999948E-4,1.649999991E-3,-7.081250101E-2
2.070055528E0,-1.374999993E-4,-5.499999970E-4,-7.397499681E-2
2.072556172E0,-1.374999993E-4,5.499999970E-4,-7.507500052E-2
2.075056558E0,9.624999948E-4,5.499999970E-4,-7.507500052E-2
2.077557095E0,-1.374999993E-4,5.499999970E-4,-7.603749633E-2
2.080057481E0,9.624999948E-4,5.499999970E-4,-7.603749633E-2
2.082558095E0,9.624999948E-4,-1.649999991E-3,-7.507500052E-2
2.085058635E0,-1.374999993E-4,5.499999970E-4,-7.397499681E-2
2.087559020E0,2.062499989E-3,1.649999991E-3,-7.397499681E-2
2.090059556E0,9.624999948E-4,-5.499999970E-4,-7.397499681E-2
2.092560182E0,9.624999948E-4,-1.649999991E-3,-7.177499682E-2
2.095060568E0,2.062499989E-3,-5.499999970E-4,-7.081250101E-2
2.097561105E0,2.062499989E-3,1.649999991E-3,-6.751249731E-2
2.100061491E0,2.062499989E-3,-5.499999970E-4,-6.324999779E-2
2.102562110E0,3.162499983E-3,5.499999970E-4,-6.544999778E-2
2.105062419E0,2.062499989E-3,5.499999970E-4,-6.228749827E-2
2.107563033E0,2.062499989E-3,1.649999991E-3,-5.802499875E-2
2.110063571E0,9.624999948E-4,5.499999970E-4,-5.582499877E-2
2.112563958E0,9.624999948E-4,5.499999970E-4,-5.486249924E-2
2.115064494E0,9.624999948E-4,1.649999991E-3,-5.376249924E-2
2.117565110E0,-1.374999993E-4,1.649999991E-3,-5.266249925E-2
2.120065496E0,-1.374999993E-4,5.499999970E-4,-5.156249925E-2
2.122566033E0,9.624999948E-4,-5.499999970E-4,-5.059999973E-2
2.125066404E0,2.062499989E-3,1.649999991E-3,-5.059999973E-2
2.127567018E0,-1.374999993E-4,5.499999970E-4,-5.059999973E-2
2.130067558E0,9.624999948E-4,1.649999991E-3,-5.059999973E-2
2.132567943E0,9.624999948E-4,-5.499999970E-4,-5.059999973E-2
2.135068474E0,2.062499989E-3,-5.499999970E-4,-5.156249925E-2
2.137569090E0,-1.374999993E-4,5.499999970E-4,-5.266249925E-2
2.140069476E0,9.624999948E-4,5.499999970E-4,-5.266249925E-2
2.142570013E0,-1.374999993E-4,5.499999970E-4,-5.376249924E-2
2.145070367E0,-1.374999993E-4,-5.499999970E-4,-5.486249924E-2
2.147570980E0,-1.374999993E-4,1.649999991E-3,-5.582499877E-2
2.150071520E0,9.624999948E-4,5.499999970E-4,-5.802499875E-2
2.152571905E0,-1.374999993E-4,1.649999991E-3,-6.008749828E-2
2.155072455E0,9.624999948E-4,1.649999991E-3,-6.228749827E-2
2.157572842E0,9.624999948E-4,-5.499999970E-4,-6.544999778E-2
2.160073456E0,3.162499983E-3,1.649999991E-3,-7.287500054E-2
2.162573996E0,-1.099999994E-3,5.499999970E-4,-7.603749633E-2
2.165074367E0,9.624999948E-4,5.499999970E-4,-7.933750004E-2
2.167574903E0,-1.374999993E-4,1.649999991E-3,-8.456250280E-2
2.170075290E0,-1.374999993E-4,5.499999970E-4,-9.308750182E-2
2.172575903E0,-1.099999994E-3,-5.499999970E-4,-9.844999760E-2
2.175076444E0,-1.374999993E-4,5.499999970E-4,-1.038125008E-1
2.177577081E0,9.624999948E-4,-1.649999991E-3,-1.101374999E-1
2.180077391E0,-1.374999993E-4,5.499999970E-4,-1.175625026E-1
2.182578004E0,9.624999948E-4,5.499999970E-4,-1.240250021E-1
2.185078391E0,9.624999948E-4,5.499999970E-4,-1.282874942E-1
2.187578936E0,9.624999948E-4,-5.499999970E-4,-1.335124969E-1
2.190079323E0,-1.099999994E-3,-5.499999970E-4,-1.388749927E-1
2.192579936E0,2.062499989E-3,-5.499999970E-4,-1.442375034E-1
2.195080477E0,9.624999948E-4,-5.499999970E-4,-1.473999918E-1
2.197580861E0,-1.374999993E-4,5.499999970E-4,-1.494625062E-1
2.200081398E0,-1.374999993E-4,-5.499999970E-4,-1.537249982E-1
2.202582013E0,-1.374999993E-4,-5.499999970E-4,-1.570249945E-1
2.205082400E0,-1.099999994E-3,-1.649999991E-3,-1.611499935E-1
2.207582936E0,-1.099999994E-3,5.499999970E-4,-1.622499973E-1
2.210083323E0,9.624999948E-4,5.499999970E-4,-1.654125005E-1
2.212583936E0,-1.374999993E-4,-1.649999991E-3,-1.665125042E-1
2.215084477E0,-1.099999994E-3,5.499999970E-4,-1.696749926E-1
2.217584861E0,-1.099999994E-3,5.499999970E-4,-1.707749963E-1
2.220085408E0,-2.199999988E-3,5.499999970E-4,-1.718750000E-1
2.222586023E0,-1.374999993E-4,-1.649999991E-3,-1.729750037E-1
2.225086410E0,-2.199999988E-3,-5.499999970E-4,-1.729750037E-1
2.227586946E0,-1.099999994E-3,-1.649999991E-3,-1.729750037E-1
2.230087323E0,-1.099999994E-3,-1.649999991E-3,-1.696749926E-1
2.232587859E0,9.624999948E-4,-1.649999991E-3,-1.707749963E-1
2.235088475E0,-1.374999993E-4,-5.499999970E-4,-1.676124930E-1
2.237588784E0,9.624999948E-4,-5.499999970E-4,-1.665125042E-1
2.240089398E0,-1.374999993E-4,-2.612499986E-3,-1.622499973E-1
2.242589784E0,-1.374999993E-4,-5.499999970E-4,-1.644500047E-1
2.245090321E0,9.624999948E-4,-5.499999970E-4,-1.611499935E-1
2.247590707E0,-2.199999988E-3,-5.499999970E-4,-1.590874940E-1
2.250091307E0,-1.374999993E-4,-1.649999991E-3,-1.570249945E-1
2.252591847E0,9.624999948E-4,-1.649999991E-3,-1.548250020E-1
2.255092461E0,-2.199999988E-3,5.499999970E-4,-1.505624950E-1
2.257592847E0,-2.199999988E-3,-2.612499986E-3,-1.516624987E-1
2.260093384E0,-1.099999994E-3,-5.499999970E-4,-1.494625062E-1
2.262593765E0,-1.374999993E-4,-1.649999991E-3,-1.505624950E-1
2.265094302E0,-1.099999994E-3,-5.499999970E-4,-1.494625062E-1
2.267594689E0,-1.099999994E-3,-5.499999970E-4,-1.473999918E-1
2.270095302E0,-1.099999994E-3,-5.499999970E-4,-1.473999918E-1
2.272595847E0,-1.099999994E-3,5.499999970E-4,-1.473999918E-1
2.275096232E0,-4.399999976E-3,-1.649999991E-3,-1.473999918E-1
2.277596768E0,-1.099999994E-3,-5.499999970E-4,-1.494625062E-1
2.280097384E0,-1.099999994E-3,-3.712499980E-3,-1.505624950E-1
2.282597774E0,-2.199999988E-3,-5.499999970E-4,-1.516624987E-1
2.285098311E0,-1.099999994E-3,-5.499999970E-4,-1.516624987E-1
2.287598698E0,-2.199999988E-3,-1.649999991E-3,-1.527625024E-1
2.290099311E0,-2.199999988E-3,-1.649999991E-3,-1.537249982E-1
2.292599846E0,-1.374999993E-4,-5.499999970E-4,-1.559250057E-1
2.295100231E0,-1.099999994E-3,-5.499999970E-4,-1.579875052E-1
2.297600768E0,-1.099999994E-3,-1.649999991E-3,-1.579875052E-1
2.300101154E0,-2.199999988E-3,-5.499999970E-4,-1.601874977E-1
2.302601768E0,9.624999948E-4,-1.649999991E-3,-1.644500047E-1
2.305102308E0,-1.099999994E-3,-5.499999970E-4,-1.611499935E-1
2.307602693E0,-2.199999988E-3,-1.649999991E-3,-1.633500010E-1
2.310103229E0,-2.199999988E-3,-1.649999991E-3,-1.644500047E-1
2.312603844E0,-1.099999994E-3,-5.499999970E-4,-1.665125042E-1
2.315104246E0,-3.299999982E-3,5.499999970E-4,-1.665125042E-1
2.317604783E0,-1.099999994E-3,-5.499999970E-4,-1.676124930E-1
2.320105169E0,9.624999948E-4,5.499999970E-4,-1.654125005E-1
2.322605706E0,9.624999948E-4,-5.499999970E-4,-1.665125042E-1
2.325106292E0,-2.199999988E-3,-5.499999970E-4,-1.644500047E-1
2.327606679E0,-1.374999993E-4,-5.499999970E-4,-1.644500047E-1
2.330107215E0,-1.374999993E-4,-5.499999970E-4,-1.611499935E-1
2.332607831E0,-1.374999993E-4,-5.499999970E-4,-1.590874940E-1
2.335108217E0,-1.374999993E-4,-5.499999970E-4,-1.570249945E-1
2.337608754E0,-1.374999993E-4,-1.649999991E-3,-1.548250020E-1
2.340109140E0,-1.099999994E-3,-1.649999991E-3,-1.494625062E-1
2.342609754E0,-1.374999993E-4,-5.499999970E-4,-1.431374997E-1
2.345110294E0,-1.099999994E-3,5.499999970E-4,-1.399749964E-1
2.347610669E0,9.624999948E-4,-1.649999991E-3,-1.357125044E-1
2.350111205E0,-1.099999994E-3,-5.499999970E-4,-1.335124969E-1
2.352611592E0,-1.374999993E-4,-5.499999970E-4,-1.271875054E-1
2.355112205E0,-1.099999994E-3,-5.499999970E-4,-1.240250021E-1
2.357612751E0,-1.374999993E-4,-1.649999991E-3,-1.164624989E-1
2.360113135E0,-1.374999993E-4,-5.499999970E-4,-1.112374961E-1
2.362613672E0,-1.374999993E-4,-5.499999970E-4,-1.090374961E-1
2.365114287E0,-2.199999988E-3,-5.499999970E-4,-1.038125008E-1
2.367614685E0,-1.374999993E-4,5.499999970E-4,-1.005124971E-1
2.370115221E0,9.624999948E-4,-5.499999970E-4,-9.528750181E-2
2.372615608E0,-1.099999994E-3,-5.499999970E-4,-9.198749810E-2
2.375116221E0,-1.374999993E-4,-5.499999970E-4,-8.676250279E-2
2.377616526E0,-1.099999994E-3,-5.499999970E-4,-8.456250280E-2
2.380117139E0,-1.374999993E-4,-5.499999970E-4,-7.933750004E-2
2.382617678E0,-1.374999993E-4,-1.649999991E-3,-7.397499681E-2
2.385118293E0,-1.374999993E-4,-5.499999970E-4,-7.287500054E-2
2.387618579E0,-2.199999988E-3,-2.612499986E-3,-6.971249729E-2
2.390119192E0,9.624999948E-4,-1.649999991E-3,-6.751249731E-2
2.392619579E0,9.624999948E-4,-5.499999970E-4,-6.655000150E-2
2.395120192E0,9.624999948E-4,5.499999970E-4,-6.228749827E-2
2.397620502E0,-1.374999993E-4,-1.649999991E-3,-6.118749827E-2
2.400121115E0,-1.374999993E-4,-5.499999970E-4,-6.118749827E-2
2.402621654E0,9.624999948E-4,-1.649999991E-3,-6.118749827E-2
2.405122269E0,9.624999948E-4,-5.499999970E-4,-6.228749827E-2
2.407622579E0,-1.099999994E-3,5.499999970E-4,-6.324999779E-2
2.410123187E0,9.624999948E-4,-5.499999970E-4,-6.324999779E-2
2.412623574E0,-1.374999993E-4,-5.499999970E-4,-6.324999779E-2
2.415124110E0,-1.374999993E-4,-5.499999970E-4,-6.435000151E-2
2.417624497E0,9.624999948E-4,-5.499999970E-4,-6.861250103E-2
2.420125067E0,9.624999948E-4,5.499999970E-4,-6.971249729E-2
2.422625682E0,2.062499989E-3,-5.499999970E-4,-7.287500054E-2
2.425126069E0,9.624999948E-4,-5.499999970E-4,-7.177499682E-2
2.427626605E0,-1.374999993E-4,-5.499999970E-4,-7.603749633E-2
2.430126978E0,-1.374999993E-4,-5.499999970E-4,-7.397499681E-2
2.432627591E0,-1.374999993E-4,5.499999970E-4,-7.713750005E-2
2.435128131E0,9.624999948E-4,5.499999970E-4,-7.823749632E-2
2.437628516E0,2.062499989E-3,5.499999970E-4,-7.823749632E-2
2.440129053E0,9.624999948E-4,1.649999991E-3,-7.933750004E-2
2.442629673E0,-1.374999993E-4,5.499999970E-4,-8.139999956E-2
2.445130060E0,-1.374999993E-4,-5.499999970E-4,-8.030000329E-2
2.447630596E0,9.624999948E-4,5.499999970E-4,-8.030000329E-2
2.450130983E0,-1.374999993E-4,-5.499999970E-4,-7.933750004E-2
2.452631606E0,2.062499989E-3,5.499999970E-4,-8.139999956E-2
2.455132147E0,9.624999948E-4,1.649999991E-3,-8.139999956E-2
2.457632531E0,9.624999948E-4,1.649999991E-3,-7.823749632E-2
2.460133068E0,-1.374999993E-4,1.649999991E-3,-7.823749632E-2
2.462633683E0,9.624999948E-4,-5.499999970E-4,-7.713750005E-2
2.465134002E0,-1.374999993E-4,-5.499999970E-4,-7.713750005E-2
2.467634615E0,-1.099999994E-3,1.649999991E-3,-7.603749633E-2
2.470135002E0,-1.374999993E-4,5.499999970E-4,-7.177499682E-2
2.472635615E0,9.624999948E-4,5.499999970E-4,-7.177499682E-2
2.475135940E0,9.624999948E-4,1.649999991E-3,-7.081250101E-2
2.477636553E0,3.162499983E-3,1.649999991E-3,-7.177499682E-2
2.480137092E0,2.062499989E-3,5.499999970E-4,-6.655000150E-2
2.482637478E0,9.624999948E-4,-1.649999991E-3,-6.655000150E-2
2.485138092E0,9.624999948E-4,-1.649999991E-3,-6.435000151E-2
2.487638641E0,-1.374999993E-4,5.499999970E-4,-6.228749827E-2
2.490139026E0,9.624999948E-4,5.499999970E-4,-6.228749827E-2
2.492639562E0,-1.374999993E-4,5.499999970E-4,-6.008749828E-2
2.495139949E0,9.624999948E-4,-5.499999970E-4,-5.802499875E-2
2.497640596E0,9.624999948E-4,5.499999970E-4,-5.898749828E-2
2.500141137E0,2.062499989E-3,-5.499999970E-4,-5.802499875E-2
2.502641521E0,-1.099999994E-3,-5.499999970E-4,-5.692499876E-2
2.505142058E0,9.624999948E-4,-5.499999970E-4,-5.486249924E-2
2.507642658E0,-1.374999993E-4,5.499999970E-4,-5.486249924E-2
2.510143045E0,9.624999948E-4,-1.649999991E-3,-5.486249924E-2
2.512643581E0,9.624999948E-4,5.499999970E-4,-5.376249924E-2
2.515143968E0,-1.099999994E-3,-1.649999991E-3,-5.059999973E-2
2.517644576E0,-1.374999993E-4,-5.499999970E-4,-5.266249925E-2
2.520145117E0,-1.374999993E-4,-5.499999970E-4,-4.949999973E-2
2.522645501E0,9.624999948E-4,-5.499999970E-4,-5.059999973E-2
2.525146038E0,9.624999948E-4,5.499999970E-4,-4.949999973E-2
2.527646424E0,-1.099999994E-3,-5.499999970E-4,-4.839999974E-2
2.530147024E0,-1.374999993E-4,-5.499999970E-4,-4.839999974E-2
2.532647564E0,-1.374999993E-4,-5.499999970E-4,-4.523750022E-2
2.535147949E0,-1.374999993E-4,-5.499999970E-4,-4.413750023E-2
2.537648485E0,-1.374999993E-4,-5.499999970E-4,-4.523750022E-2
2.540149090E0,-1.374999993E-4,-5.499999970E-4,-4.303750023E-2
2.542649476E0,-1.374999993E-4,5.499999970E-4,-4.097500071E-2
2.545150013E0,-1.099999994E-3,1.649999991E-3,-3.987500072E-2
2.547650400E0,-1.099999994E-3,1.649999991E-3,-3.987500072E-2
2.550150951E0,-1.374999993E-4,-5.499999970E-4,-3.877500072E-2
2.552651338E0,-1.099999994E-3,5.499999970E-4,-3.877500072E-2
2.555151951E0,-1.099999994E-3,-5.499999970E-4,-3.781250119E-2
2.557652491E0,-1.374999993E-4,5.499999970E-4,-3.781250119E-2
2.560152876E0,9.624999948E-4,5.499999970E-4,-3.781250119E-2
2.562653532E0,-1.374999993E-4,2.612499986E-3,-3.671250120E-2
2.565154073E0,-1.099999994E-3,5.499999970E-4,-3.987500072E-2
2.567654458E0,-1.374999993E-4,-5.499999970E-4,-3.781250119E-2
2.570154994E0,-1.374999993E-4,1.649999991E-3,-4.097500071E-2
2.572655623E0,-1.099999994E-3,-5.499999970E-4,-3.987500072E-2
2.575156010E0,-1.374999993E-4,-1.649999991E-3,-4.097500071E-2
2.577656547E0,-1.374999993E-4,1.649999991E-3,-4.207500070E-2
2.580156933E0,9.624999948E-4,5.499999970E-4,-4.303750023E-2
2.582657466E0,-1.374999993E-4,5.499999970E-4,-4.633750021E-2
2.585158081E0,-1.374999993E-4,-1.649999991E-3,-4.729999974E-2
2.587658468E0,9.624999948E-4,-1.649999991E-3,-4.949999973E-2
2.590159004E0,-1.374999993E-4,-5.499999970E-4,-4.949999973E-2
2.592659347E0,-1.099999994E-3,-1.649999991E-3,-5.156249925E-2
2.595159960E0,-1.099999994E-3,-1.649999991E-3,-5.266249925E-2
2.597660501E0,-1.374999993E-4,5.499999970E-4,-5.486249924E-2
2.600160885E0,-1.099999994E-3,-5.499999970E-4,-5.582499877E-2
2.602661422E0,-2.199999988E-3,-5.499999970E-4,-5.376249924E-2
2.605162033E0,-1.099999994E-3,-5.499999970E-4,-5.692499876E-2
2.607662343E0,-1.099999994E-3,1.649999991E-3,-5.692499876E-2
2.610162956E0,-2.199999988E-3,-1.649999991E-3,-5.582499877E-2
2.612663343E0,-1.374999993E-4,5.499999970E-4,-5.582499877E-2
2.615163869E0,-2.199999988E-3,5.499999970E-4,-5.582499877E-2
2.617664256E0,-2.199999988E-3,-5.499999970E-4,-5.692499876E-2
2.620164869E0,-1.099999994E-3,-2.612499986E-3,-5.692499876E-2
2.622665410E0,-1.099999994E-3,-1.649999991E-3,-5.486249924E-2
2.625165794E0,-1.374999993E-4,-5.499999970E-4,-5.582499877E-2
2.627666331E0,-1.374999993E-4,-5.499999970E-4,-5.376249924E-2
2.630166946E0,-2.199999988E-3,1.649999991E-3,-5.376249924E-2
2.632667333E0,-1.099999994E-3,-1.649999991E-3,-5.376249924E-2
2.635167864E0,-1.099999994E-3,-5.499999970E-4,-5.376249924E-2
2.637668251E0,-1.099999994E-3,5.499999970E-4,-5.486249924E-2
2.640168864E0,-2.199999988E-3,-5.499999970E-4,-5.376249924E-2
2.642669405E0,-1.374999993E-4,-1.649999991E-3,-5.486249924E-2
2.645169789E0,-1.099999994E-3,-1.649999991E-3,-5.582499877E-2
2.647670316E0,-1.099999994E-3,-5.499999970E-4,-5.486249924E-2
2.650170931E0,-2.199999988E-3,-1.649999991E-3,-5.582499877E-2
2.652671318E0,-2.199999988E-3,-5.499999970E-4,-5.582499877E-2
2.655171854E0,-1.099999994E-3,-1.649999991E-3,-5.376249924E-2
2.657672241E0,-1.099999994E-3,-5.499999970E-4,-5.376249924E-2
2.660172777E0,-3.299999982E-3,-2.612499986E-3,-5.266249925E-2
2.662673393E0,-3.299999982E-3,5.499999970E-4,-5.376249924E-2
2.665173779E0,-3.299999982E-3,-1.649999991E-3,-5.376249924E-2
2.667674287E0,-2.199999988E-3,-5.499999970E-4,-5.059999973E-2
2.670174673E0,-1.099999994E-3,-5.499999970E-4,-5.059999973E-2
2.672675287E0,-2.199999988E-3,-1.649999991E-3,-4.949999973E-2
2.675175827E0,-1.099999994E-3,5.499999970E-4,-4.949999973E-2
2.677676222E0,-1.374999993E-4,-1.649999991E-3,-4.523750022E-2
2.680176758E0,-1.374999993E-4,-1.649999991E-3,-4.413750023E-2
2.682677374E0,-3.299999982E-3,-2.612499986E-3,-4.523750022E-2
2.685177760E0,-2.199999988E-3,-1.649999991E-3,-4.303750023E-2
2.687678297E0,-2.199999988E-3,-1.649999991E-3,-4.097500071E-2
2.690178679E0,-2.199999988E-3,-5.499999970E-4,-4.207500070E-2
2.692679292E0,-1.099999994E-3,-1.649999991E-3,-3.877500072E-2
2.695179602E0,-2.199999988E-3,-1.649999991E-3,-3.987500072E-2
2.697680215E0,-3.299999982E-3,-2.612499986E-3,-3.987500072E-2
2.700180763E0,-1.099999994E-3,-5.499999970E-4,-3.987500072E-2
2.702681379E0,-1.099999994E-3,-1.649999991E-3,-3.877500072E-2
2.705181689E0,-2.199999988E-3,-1.649999991E-3,-3.987500072E-2
2.707682302E0,-2.199999988E-3,-1.649999991E-3,-4.097500071E-2
2.710182704E0,-2.199999988E-3,-5.499999970E-4,-4.097500071E-2
2.712683240E0,-2.199999988E-3,5.499999970E-4,-4.097500071E-2
2.715183627E0,-3.299999982E-3,-5.499999970E-4,-4.097500071E-2
2.717684163E0,-2.199999988E-3,5.499999970E-4,-4.097500071E-2
2.720184774E0,-2.199999988E-3,-5.499999970E-4,-4.303750023E-2
2.722685160E0,-1.099999994E-3,-1.649999991E-3,-4.207500070E-2
2.725185697E0,-1.374999993E-4,-5.499999970E-4,-4.413750023E-2
2.727686083E0,-2.199999988E-3,-5.499999970E-4,-4.413750023E-2
2.730186683E0,-1.099999994E-3,-1.649999991E-3,-4.523750022E-2
2.732687223E0,-3.299999982E-3,-5.499999970E-4,-4.523750022E-2
2.735187608E0,-2.199999988E-3,-5.499999970E-4,-4.523750022E-2
2.737688144E0,-1.374999993E-4,-1.649999991E-3,-4.633750021E-2
2.740188760E0,-1.099999994E-3,-1.649999991E-3,-4.523750022E-2
2.742689132E0,-1.099999994E-3,-2.612499986E-3,-4.523750022E-2
2.745189669E0,-2.199999988E-3,-5.499999970E-4,-4.413750023E-2
2.747690055E0,-2.199999988E-3,-5.499999970E-4,-4.303750023E-2
2.750190669E0,-2.199999988E-3,-1.649999991E-3,-4.303750023E-2
2.752691218E0,-3.299999982E-3,5.499999970E-4,-4.097500071E-2
2.755191603E0,-2.199999988E-3,-1.649999991E-3,-3.987500072E-2
2.757692139E0,-1.099999994E-3,-5.499999970E-4,-3.671250120E-2
2.760192755E0,-1.099999994E-3,-5.499999970E-4,-3.451250121E-2
2.762693165E0,-2.199999988E-3,-1.649999991E-3,-3.038750030E-2
2.765193702E0,-1.099999994E-3,-1.649999991E-3,-2.928750031E-2
2.767694088E0,-1.099999994E-3,-5.499999970E-4,-2.502499893E-2
2.770194702E0,-2.199999988E-3,-5.499999970E-4,-2.502499893E-2
2.772695011E0,-1.374999993E-4,-5.499999970E-4,-2.076249942E-2
2.775195625E0,-2.199999988E-3,5.499999970E-4,-1.759999990E-2
2.777696163E0,-1.099999994E-3,-1.649999991E-3,-1.856249943E-2
2.780196779E0,-1.099999994E-3,-1.649999991E-3,-1.649999991E-2
2.782697069E0,-1.374999993E-4,-5.499999970E-4,-1.429999992E-2
2.785197683E0,-2.199999988E-3,5.499999970E-4,-1.223750040E-2
2.787698069E0,-1.099999994E-3,-5.499999970E-4,-1.113750041E-2
2.790198606E0,-1.374999993E-4,1.649999991E-3,-7.974999957E-3
2.792698992E0,9.624999948E-4,-5.499999970E-4,-6.874999963E-3
2.795199529E0,-2.199999988E-3,-2.612499986E-3,-5.774999969E-3
2.797700144E0,-1.374999993E-4,-5.499999970E-4,-3.712499980E-3
2.800200531E0,-1.374999993E-4,-1.649999991E-3,-1.649999991E-3
2.802701067E0,-1.099999994E-3,-5.499999970E-4,-2.612499986E-3
2.805201463E0,-1.099999994E-3,-1.649999991E-3,-5.499999970E-4
2.807702076E0,-1.374999993E-4,-5.499999970E-4,-1.649999991E-3
2.810202617E0,-1.099999994E-3,-5.499999970E-4,1.649999991E-3
2.812703002E0,-1.374999993E-4,-5.499999970E-4,5.499999970E-4
2.815203548E0,-1.374999993E-4,-2.612499986E-3,3.712499980E-3
2.817704163E0,-1.374999993E-4,5.499999970E-4,2.612499986E-3
2.820204550E0,-1.099999994E-3,-5.499999970E-4,1.649999991E-3
2.822705086E0,-1.374999993E-4,5.499999970E-4,1.649999991E-3
2.825205473E0,-1.374999993E-4,-5.499999970E-4,5.499999970E-4
2.827706086E0,-1.374999993E-4,-5.499999970E-4,-5.499999970E-4
2.830206627E0,9.624999948E-4,-5.499999970E-4,-1.649999991E-3
2.832707012E0,9.624999948E-4,-1.649999991E-3,-4.812499974E-3
2.835207553E0,-1.374999993E-4,-5.499999970E-4,-5.774999969E-3
2.837708168E0,-1.374999993E-4,5.499999970E-4,-6.874999963E-3
2.840208555E0,-1.374999993E-4,-1.649999991E-3,-1.003750041E-2
2.842709092E0,-1.374999993E-4,-5.499999970E-4,-1.003750041E-2
2.845209487E0,-1.099999994E-3,-1.649999991E-3,-1.429999992E-2
2.847710024E0,9.624999948E-4,-5.499999970E-4,-1.539999992E-2
2.850210639E0,9.624999948E-4,-5.499999970E-4,-1.759999990E-2
2.852711026E0,2.062499989E-3,5.499999970E-4,-1.649999991E-2
2.855211562E0,-1.374999993E-4,-5.499999970E-4,-2.076249942E-2
2.857711959E0,9.624999948E-4,-1.649999991E-3,-2.282499894E-2
2.860212495E0,-1.374999993E-4,-5.499999970E-4,-2.282499894E-2
2.862712882E0,-1.374999993E-4,5.499999970E-4,-2.612499893E-2
2.865213495E0,-1.374999993E-4,5.499999970E-4,-2.502499893E-2
2.867714041E0,2.062499989E-3,-1.649999991E-3,-2.502499893E-2
2.870214425E0,9.624999948E-4,-5.499999970E-4,-2.612499893E-2
2.872714962E0,-1.374999993E-4,5.499999970E-4,-2.612499893E-2
2.875215577E0,9.624999948E-4,-5.499999970E-4,-2.612499893E-2
2.877715959E0,9.624999948E-4,5.499999970E-4,-2.708750032E-2
2.880216572E0,-1.374999993E-4,-5.499999970E-4,-2.818750031E-2
2.882716882E0,-1.374999993E-4,5.499999970E-4,-3.038750030E-2
2.885217495E0,9.624999948E-4,-5.499999970E-4,-2.708750032E-2
2.887718044E0,-1.374999993E-4,-1.649999991E-3,-2.818750031E-2
2.890218430E0,9.624999948E-4,-5.499999970E-4,-2.612499893E-2
2.892718967E0,2.062499989E-3,-5.499999970E-4,-2.708750032E-2
2.895219582E0,-1.099999994E-3,5.499999970E-4,-2.708750032E-2
2.897719959E0,-1.374999993E-4,-5.499999970E-4,-2.392499894E-2
2.900220495E0,-1.374999993E-4,-1.649999991E-3,-2.502499893E-2
2.902720882E0,-1.374999993E-4,-1.649999991E-3,-2.282499894E-2
2.905221495E0,9.624999948E-4,-1.649999991E-3,-2.392499894E-2
2.907722041E0,-1.099999994E-3,-5.499999970E-4,-2.076249942E-2
2.910222425E0,-1.374999993E-4,-5.499999970E-4,-2.186249942E-2
2.912722962E0,-1.099999994E-3,-5.499999970E-4,-1.649999991E-2
2.915223348E0,-1.374999993E-4,-5.499999970E-4,-1.539999992E-2
2.917723962E0,2.062499989E-3,5.499999970E-4,-1.429999992E-2
2.920224497E0,2.062499989E-3,-5.499999970E-4,-1.223750040E-2
2.922724882E0,9.624999948E-4,-5.499999970E-4,-9.074999951E-3
2.925225418E0,2.062499989E-3,5.499999970E-4,-6.874999963E-3
2.927726034E0,2.062499989E-3,-5.499999970E-4,-4.812499974E-3
2.930226434E0,2.062499989E-3,-5.499999970E-4,-2.612499986E-3
2.932726971E0,9.624999948E-4,-5.499999970E-4,-1.649999991E-3
2.935227358E0,9.624999948E-4,-5.499999970E-4,5.499999970E-4
2.937727971E0,2.062499989E-3,-5.499999970E-4,1.649999991E-3
2.940228291E0,2.062499989E-3,5.499999970E-4,2.612499986E-3
2.942728904E0,-1.374999993E-4,-1.649999991E-3,2.612499986E-3
2.945229442E0,9.624999948E-4,-5.499999970E-4,1.649999991E-3
2.947729829E0,2.062499989E-3,-2.612499986E-3,2.612499986E-3
2.950230366E0,2.062499989E-3,-5.499999970E-4,2.612499986E-3
2.952731014E0,2.062499989E-3,-5.499999970E-4,1.649999991E-3
2.955231401E0,2.062499989E-3,-1.649999991E-3,1.649999991E-3
2.957731937E0,2.062499989E-3,-1.649999991E-3,-5.499999970E-4
2.960232324E0,-1.374999993E-4,-2.612499986E-3,-2.612499986E-3
2.962732941E0,2.062499989E-3,-1.649999991E-3,-3.712499980E-3
2.965233482E0,9.624999948E-4,-5.499999970E-4,-5.774999969E-3
2.967733866E0,9.624999948E-4,-5.499999970E-4,-7.974999957E-3
2.970234403E0,2.062499989E-3,-5.499999970E-4,-1.003750041E-2
2.972735009E0,3.162499983E-3,-5.499999970E-4,-1.223750040E-2
2.975235396E0,2.062499989E-3,5.499999970E-4,-1.429999992E-2
2.977735932E0,2.062499989E-3,5.499999970E-4,-1.649999991E-2
2.980236319E0,9.624999948E-4,-5.499999970E-4,-1.966249943E-2
2.982736932E0,9.624999948E-4,-5.499999970E-4,-2.186249942E-2
2.985237473E0,-1.374999993E-4,5.499999970E-4,-2.502499893E-2
2.987737857E0,9.624999948E-4,-1.649999991E-3,-2.612499893E-2
2.990238394E0,3.162499983E-3,-5.499999970E-4,-2.818750031E-2
2.992739009E0,9.624999948E-4,5.499999970E-4,-3.135000169E-2
2.995239396E0,9.624999948E-4,-5.499999970E-4,-3.135000169E-2
2.997739932E0,3.162499983E-3,-1.649999991E-3,-3.244999796E-2
3.000240319E0,9.624999948E-4,-5.499999970E-4,-3.355000168E-2
3.002740864E0,9.624999948E-4,-5.499999970E-4,-3.671250120E-2
3.005241480E0,3.162499983E-3,-5.499999970E-4,-3.355000168E-2
3.007741866E0,2.062499989E-3,-5.499999970E-4,-3.561250120E-2
3.010242403E0,-1.374999993E-4,5.499999970E-4,-3.671250120E-2
3.012742789E0,9.624999948E-4,5.499999970E-4,-3.451250121E-2
3.015243413E0,-1.374999993E-4,-5.499999970E-4,-3.561250120E-2
3.017743722E0,-1.374999993E-4,-5.499999970E-4,-3.355000168E-2
3.020244336E0,9.624999948E-4,-5.499999970E-4,-3.561250120E-2
3.022744874E0,2.062499989E-3,5.499999970E-4,-3.451250121E-2
3.025245270E0,9.624999948E-4,-5.499999970E-4,-3.451250121E-2
3.027745806E0,9.624999948E-4,5.499999970E-4,-3.355000168E-2
3.030246422E0,9.624999948E-4,-5.499999970E-4,-3.451250121E-2
3.032746808E0,-1.374999993E-4,-5.499999970E-4,-3.355000168E-2
3.035247340E0,9.624999948E-4,-1.649999991E-3,-3.451250121E-2
3.037747726E0,-1.374999993E-4,-1.649999991E-3,-3.561250120E-2
3.040248340E0,-1.374999993E-4,-1.649999991E-3,-3.561250120E-2
3.042748880E0,9.624999948E-4,-5.499999970E-4,-3.561250120E-2
3.045249271E0,-1.374999993E-4,-2.612499986E-3,-3.561250120E-2
3.047749807E0,-1.374999993E-4,-5.499999970E-4,-3.671250120E-2
3.050250423E0,9.624999948E-4,-5.499999970E-4,-3.561250120E-2
3.052750809E0,-1.374999993E-4,5.499999970E-4,-3.451250121E-2
3.055251341E0,-1.374999993E-4,-1.649999991E-3,-3.451250121E-2
3.057751727E0,9.624999948E-4,5.499999970E-4,-3.244999796E-2
3.060252341E0,-1.374999993E-4,5.499999970E-4,-3.038750030E-2
3.062752881E0,-1.374999993E-4,-1.649999991E-3,-2.818750031E-2
3.065253276E0,-1.374999993E-4,5.499999970E-4,-2.708750032E-2
3.067753812E0,-1.099999994E-3,5.499999970E-4,-2.612499893E-2
3.070254428E0,9.624999948E-4,-5.499999970E-4,-2.186249942E-2
3.072754814E0,9.624999948E-4,-5.499999970E-4,-1.856249943E-2
3.075255351E0,2.062499989E-3,-5.499999970E-4,-1.966249943E-2
3.077755747E0,-1.374999993E-4,5.499999970E-4,-1.649999991E-2
3.080256360E0,-1.374999993E-4,5.499999970E-4,-1.429999992E-2
3.082756670E0,9.624999948E-4,5.499999970E-4,-1.333750039E-2
3.085257206E0,-1.374999993E-4,1.649999991E-3,-9.074999951E-3
3.087757821E0,9.624999948E-4,-5.499999970E-4,-9.074999951E-3
3.090258208E0,2.062499989E-3,5.499999970E-4,-6.874999963E-3
3.092758745E0,-1.099999994E-3,-5.499999970E-4,-5.499999970E-4
3.095259131E0,9.624999948E-4,-5.499999970E-4,-1.649999991E-3
3.097759716E0,-1.374999993E-4,5.499999970E-4,1.649999991E-3
3.100260256E0,-1.099999994E-3,5.499999970E-4,4.812499974E-3
3.102760641E0,2.062499989E-3,5.499999970E-4,7.974999957E-3
3.105261177E0,2.062499989E-3,-5.499999970E-4,9.074999951E-3
3.107761779E0,-1.374999993E-4,-5.499999970E-4,1.443750039E-2
3.110262165E0,-1.374999993E-4,-1.649999991E-3,1.333750039E-2
3.112762702E0,-1.374999993E-4,-1.649999991E-3,1.539999992E-2
3.115263088E0,9.624999948E-4,-5.499999970E-4,1.539999992E-2
3.117763668E0,9.624999948E-4,-5.499999970E-4,1.649999991E-2
3.120264208E0,-1.374999993E-4,5.499999970E-4,1.869999990E-2
3.122764593E0,-1.374999993E-4,-5.499999970E-4,1.539999992E-2
3.125265129E0,3.162499983E-3,-5.499999970E-4,1.539999992E-2
3.127765726E0,9.624999948E-4,-5.499999970E-4,1.443750039E-2
3.130266112E0,-1.374999993E-4,-5.499999970E-4,1.223750040E-2
3.132766649E0,-1.374999993E-4,-5.499999970E-4,1.017499994E-2
3.135267035E0,-1.374999993E-4,-5.499999970E-4,1.113750041E-2
3.137767649E0,9.624999948E-4,-5.499999970E-4,5.912499968E-3
3.140268184E0,-1.099999994E-3,-1.649999991E-3,6.874999963E-3
3.142768569E0,9.624999948E-4,-5.499999970E-4,2.612499986E-3
3.145269105E0,-1.374999993E-4,-5.499999970E-4,5.499999970E-4
3.147769492E0,-1.374999993E-4,-5.499999970E-4,-1.649999991E-3
3.150270019E0,9.624999948E-4,5.499999970E-4,-3.712499980E-3
3.152770635E0,2.062499989E-3,-5.499999970E-4,-6.874999963E-3
3.155271021E0,-1.374999993E-4,-1.649999991E-3,-7.974999957E-3
3.157771558E0,-1.374999993E-4,-5.499999970E-4,-1.113750041E-2
3.160271944E0,-1.099999994E-3,5.499999970E-4,-1.539999992E-2
3.162772553E0,-1.374999993E-4,-2.612499986E-3,-1.759999990E-2
3.165273093E0,9.624999948E-4,5.499999970E-4,-1.856249943E-2
3.167773478E0,9.624999948E-4,-5.499999970E-4,-2.186249942E-2
3.170274014E0,-1.099999994E-3,-5.499999970E-4,-2.502499893E-2
3.172774382E0,9.624999948E-4,-2.612499986E-3,-2.928750031E-2
3.175274995E0,-1.374999993E-4,-1.649999991E-3,-3.038750030E-2
3.177775536E0,-1.099999994E-3,5.499999970E-4,-3.671250120E-2
3.180275920E0,-1.099999994E-3,-1.649999991E-3,-3.671250120E-2
3.182776442E0,-1.099999994E-3,-5.499999970E-4,-4.207500070E-2
3.185277057E0,-1.374999993E-4,-5.499999970E-4,-4.413750023E-2
3.187777444E0,-1.099999994E-3,-5.499999970E-4,-4.303750023E-2
3.190277980E0,-1.374999993E-4,-1.649999991E-3,-4.633750021E-2
3.192778567E0,-1.374999993E-4,5.499999970E-4,-4.839999974E-2
3.195278953E0,-1.374999993E-4,1.649999991E-3,-4.839999974E-2
3.197779490E0,-2.199999988E-3,5.499999970E-4,-4.729999974E-2
3.200279877E0,-1.374999993E-4,-1.649999991E-3,-4.839999974E-2
3.202780413E0,-1.099999994E-3,-5.499999970E-4,-4.729999974E-2
3.205281028E0,-1.099999994E-3,-5.499999970E-4,-4.839999974E-2
3.207781415E0,-1.374999993E-4,-1.649999991E-3,-4.523750022E-2
3.210281951E0,-1.099999994E-3,-5.499999970E-4,-4.633750021E-2
3.212782338E0,-1.374999993E-4,-5.499999970E-4,-4.633750021E-2
3.215282870E0,9.624999948E-4,-5.499999970E-4,-4.303750023E-2
3.217783485E0,-1.099999994E-3,-5.499999970E-4,-4.523750022E-2
3.220283872E0,9.624999948E-4,5.499999970E-4,-4.303750023E-2
3.222784408E0,-1.099999994E-3,-5.499999970E-4,-4.207500070E-2
3.225284781E0,-1.099999994E-3,-5.499999970E-4,-4.207500070E-2
3.227785394E0,-1.374999993E-4,-1.649999991E-3,-3.987500072E-2
3.230285935E0,-1.374999993E-4,-1.649999991E-3,-4.207500070E-2
3.232786319E0,-2.199999988E-3,5.499999970E-4,-3.877500072E-2
3.235286841E0,-1.099999994E-3,-2.612499986E-3,-3.877500072E-2
3.237787227E0,-1.374999993E-4,-5.499999970E-4,-3.781250119E-2
3.240287841E0,-1.099999994E-3,-1.649999991E-3,-3.671250120E-2
3.242788381E0,-1.099999994E-3,-5.499999970E-4,-3.671250120E-2
3.245288766E0,-1.374999993E-4,-5.499999970E-4,-3.355000168E-2
3.247789288E0,-1.099999994E-3,5.499999970E-4,-3.244999796E-2
3.250289904E0,-1.099999994E-3,5.499999970E-4,-3.244999796E-2
3.252790290E0,-1.374999993E-4,-5.499999970E-4,-3.355000168E-2
3.255290827E0,-1.099999994E-3,5.499999970E-4,-3.355000168E-2
3.257791199E0,-2.199999988E-3,5.499999970E-4,-3.355000168E-2
3.260291736E0,-1.374999993E-4,5.499999970E-4,-3.451250121E-2
3.262792351E0,-1.099999994E-3,-5.499999970E-4,-3.671250120E-2
3.265292738E0,-1.374999993E-4,-5.499999970E-4,-3.561250120E-2
3.267793274E0,-1.374999993E-4,-5.499999970E-4,-3.781250119E-2
3.270293665E0,-1.099999994E-3,-1.649999991E-3,-3.671250120E-2
3.272794278E0,-1.374999993E-4,-5.499999970E-4,-3.877500072E-2
3.275294819E0,9.624999948E-4,5.499999970E-4,-3.987500072E-2
3.277795203E0,-1.099999994E-3,-5.499999970E-4,-3.877500072E-2
3.280295750E0,-1.099999994E-3,-5.499999970E-4,-3.987500072E-2
3.282796136E0,-1.374999993E-4,-1.649999991E-3,-3.987500072E-2
3.285296750E0,-1.374999993E-4,-5.499999970E-4,-3.877500072E-2
3.287797290E0,-1.099999994E-3,-1.649999991E-3,-3.987500072E-2
3.290297675E0,-1.099999994E-3,-1.649999991E-3,-3.987500072E-2
3.292798225E0,9.624999948E-4,-1.649999991E-3,-3.877500072E-2
3.295298841E0,-1.374999993E-4,-1.649999991E-3,-4.097500071E-2
3.297799227E0,9.624999948E-4,-1.649999991E-3,-3.987500072E-2
3.300299764E0,9.624999948E-4,-5.499999970E-4,-4.207500070E-2
3.302800170E0,-1.374999993E-4,-2.612499986E-3,-4.413750023E-2
3.305300784E0,-1.374999993E-4,-1.649999991E-3,-4.413750023E-2
3.307801324E0,9.624999948E-4,-1.649999991E-3,-4.523750022E-2
3.310301709E0,-2.199999988E-3,-1.649999991E-3,-4.633750021E-2
3.312802264E0,9.624999948E-4,-1.649999991E-3,-4.729999974E-2
3.315302651E0,-1.099999994E-3,-1.649999991E-3,-4.949999973E-2
3.317803264E0,-1.099999994E-3,-1.649999991E-3,-4.949999973E-2
3.320303805E0,-1.374999993E-4,-5.499999970E-4,-5.156249925E-2
3.322804190E0,-1.099999994E-3,5.499999970E-4,-5.059999973E-2
3.325304726E0,-1.374999993E-4,-5.499999970E-4,-4.839999974E-2
3.327805341E0,-1.099999994E-3,-5.499999970E-4,-5.059999973E-2
3.330305651E0,-1.374999993E-4,-1.649999991E-3,-4.839999974E-2
3.332806264E0,-1.374999993E-4,-1.649999991E-3,-4.413750023E-2
3.335306660E0,9.624999948E-4,-5.499999970E-4,-4.523750022E-2
3.337807197E0,9.624999948E-4,-5.499999970E-4,-4.207500070E-2
3.340307583E0,-1.374999993E-4,-5.499999970E-4,-3.877500072E-2
3.342808197E0,-1.099999994E-3,5.499999970E-4,-3.671250120E-2
3.345308747E0,9.624999948E-4,-5.499999970E-4,-3.451250121E-2
3.347809132E0,9.624999948E-4,-5.499999970E-4,-3.135000169E-2
3.350309668E0,-1.374999993E-4,-5.499999970E-4,-2.928750031E-2
3.352810284E0,-1.099999994E-3,-5.499999970E-4,-2.502499893E-2
3.355310670E0,9.624999948E-4,-5.499999970E-4,-2.076249942E-2
3.357811216E0,-1.374999993E-4,-1.649999991E-3,-1.966249943E-2
3.360311602E0,-2.199999988E-3,-1.649999991E-3,-1.856249943E-2
3.362812216E0,-1.374999993E-4,-5.499999970E-4,-1.759999990E-2
3.365312756E0,-1.374999993E-4,-1.649999991E-3,-1.223750040E-2
3.367813165E0,-1.374999993E-4,-5.499999970E-4,-1.113750041E-2
3.370313701E0,-1.374999993E-4,-1.649999991E-3,-9.074999951E-3
3.372814317E0,2.062499989E-3,5.499999970E-4,-5.774999969E-3
3.375314703E0,-1.374999993E-4,-5.499999970E-4,-4.812499974E-3
3.377815236E0,-1.374999993E-4,5.499999970E-4,-1.649999991E-3
3.380315622E0,-1.374999993E-4,-1.649999991E-3,5.499999970E-4
3.382816236E0,9.624999948E-4,-1.649999991E-3,2.612499986E-3
3.385316776E0,-1.099999994E-3,5.499999970E-4,3.712499980E-3
3.387817156E0,-1.099999994E-3,-2.612499986E-3,4.812499974E-3
3.390317692E0,-1.374999993E-4,-5.499999970E-4,5.912499968E-3
3.392818079E0,-1.099999994E-3,5.499999970E-4,7.974999957E-3
3.395318615E0,-1.374999993E-4,-1.649999991E-3,6.874999963E-3
3.397819015E0,9.624999948E-4,-1.649999991E-3,7.974999957E-3
3.400319628E0,2.062499989E-3,-5.499999970E-4,5.912499968E-3
3.402820169E0,2.062499989E-3,-5.499999970E-4,6.874999963E-3
3.405320553E0,-1.374999993E-4,-1.649999991E-3,6.874999963E-3
3.407821090E0,2.062499989E-3,-5.499999970E-4,7.974999957E-3
3.410321729E0,-1.374999993E-4,-1.649999991E-3,7.974999957E-3
3.412822116E0,-1.374999993E-4,5.499999970E-4,5.912499968E-3
3.415322652E0,-1.374999993E-4,5.499999970E-4,6.874999963E-3
3.417823039E0,9.624999948E-4,-1.649999991E-3,6.874999963E-3
3.420323652E0,-1.099999994E-3,5.499999970E-4,5.912499968E-3
3.422824193E0,-1.374999993E-4,-5.499999970E-4,4.812499974E-3
3.425324577E0,-1.374999993E-4,5.499999970E-4,4.812499974E-3
3.427825114E0,9.624999948E-4,-1.649999991E-3,4.812499974E-3
3.430325729E0,-1.374999993E-4,-5.499999970E-4,4.812499974E-3
3.432826135E0,-1.374999993E-4,1.649999991E-3,-5.499999970E-4
3.435326671E0,2.062499989E-3,-1.649999991E-3,-5.499999970E-4
3.437827058E0,9.624999948E-4,5.499999970E-4,-2.612499986E-3
3.440327594E0,-1.374999993E-4,-5.499999970E-4,-3.712499980E-3
3.442828220E0,-1.374999993E-4,-5.499999970E-4,-6.874999963E-3
3.445328606E0,9.624999948E-4,5.499999970E-4,-6.874999963E-3
3.447829143E0,-1.374999993E-4,5.499999970E-4,-1.113750041E-2
3.450329530E0,-1.374999993E-4,5.499999970E-4,-1.113750041E-2
3.452830143E0,-1.374999993E-4,-5.499999970E-4,-1.429999992E-2
3.455330673E0,9.624999948E-4,-5.499999970E-4,-1.649999991E-2
3.457831058E0,9.624999948E-4,-1.649999991E-3,-1.539999992E-2
3.460331595E0,2.062499989E-3,-5.499999970E-4,-1.649999991E-2
3.462832210E0,-1.099999994E-3,5.499999970E-4,-1.759999990E-2
3.465332602E0,9.624999948E-4,-5.499999970E-4,-1.856249943E-2
3.467833138E0,-1.374999993E-4,5.499999970E-4,-1.966249943E-2
3.470333525E0,9.624999948E-4,-5.499999970E-4,-2.076249942E-2
3.472834061E0,-1.099999994E-3,1.649999991E-3,-1.966249943E-2
3.475334662E0,9.624999948E-4,-5.499999970E-4,-1.966249943E-2
3.477835049E0,-1.099999994E-3,-5.499999970E-4,-1.856249943E-2
3.480335586E0,9.624999948E-4,-5.499999970E-4,-2.282499894E-2
3.482835972E0,-1.099999994E-3,-5.499999970E-4,-1.966249943E-2
3.485336494E0,-1.099999994E-3,-1.649999991E-3,-2.076249942E-2
3.487837109E0,-1.374999993E-4,-5.499999970E-4,-2.186249942E-2
3.490337496E0,9.624999948E-4,-5.499999970E-4,-2.282499894E-2
3.492838032E0,-1.099999994E-3,-1.649999991E-3,-2.076249942E-2
3.495338415E0,9.624999948E-4,5.499999970E-4,-2.282499894E-2
3.497839028E0,-1.374999993E-4,-2.612499986E-3,-2.392499894E-2
3.500339569E0,9.624999948E-4,-1.649999991E-3,-2.502499893E-2
3.502839953E0,-1.099999994E-3,-5.499999970E-4,-2.502499893E-2
3.505340490E0,9.624999948E-4,-5.499999970E-4,-2.612499893E-2
3.507840880E0,-1.374999993E-4,-5.499999970E-4,-2.708750032E-2
3.510341494E0,-1.099999994E-3,-5.499999970E-4,-2.612499893E-2
3.512842034E0,-1.374999993E-4,5.499999970E-4,-2.502499893E-2
3.515342419E0,-1.099999994E-3,-1.649999991E-3,-2.708750032E-2
3.517842946E0,-1.374999993E-4,5.499999970E-4,-2.392499894E-2
3.520343562E0,-2.199999988E-3,-1.649999991E-3,-2.392499894E-2
3.522843948E0,-1.374999993E-4,5.499999970E-4,-2.392499894E-2
3.525344485E0,-1.374999993E-4,-1.649999991E-3,-2.076249942E-2
3.527844871E0,-1.099999994E-3,1.649999991E-3,-1.966249943E-2
3.530345470E0,-1.374999993E-4,5.499999970E-4,-1.856249943E-2
3.532846010E0,-1.374999993E-4,-5.499999970E-4,-1.649999991E-2
3.535346395E0,-1.374999993E-4,-5.499999970E-4,-1.539999992E-2
3.537846931E0,-1.374999993E-4,-1.649999991E-3,-1.429999992E-2
3.540347542E0,9.624999948E-4,-5.499999970E-4,-1.223750040E-2
3.542847928E0,-1.374999993E-4,-1.649999991E-3,-1.003750041E-2
3.545348465E0,9.624999948E-4,-5.499999970E-4,-1.003750041E-2
3.547848851E0,9.624999948E-4,-5.499999970E-4,-6.874999963E-3
3.550349393E0,-1.374999993E-4,-5.499999970E-4,-4.812499974E-3
3.552850008E0,9.624999948E-4,-5.499999970E-4,-1.649999991E-3
3.555350395E0,-1.099999994E-3,1.649999991E-3,5.499999970E-4
3.557850931E0,-1.374999993E-4,1.649999991E-3,4.812499974E-3
3.560351309E0,-1.374999993E-4,-5.499999970E-4,7.974999957E-3
3.562851845E0,-1.099999994E-3,5.499999970E-4,9.074999951E-3
3.565352461E0,-1.374999993E-4,-5.499999970E-4,1.333750039E-2
3.567852847E0,-1.374999993E-4,5.499999970E-4,1.759999990E-2
3.570353384E0,-1.374999993E-4,5.499999970E-4,1.869999990E-2
3.572853770E0,-1.374999993E-4,5.499999970E-4,2.186249942E-2
3.575354306E0,-1.374999993E-4,-5.499999970E-4,2.612499893E-2
3.577854921E0,9.624999948E-4,-5.499999970E-4,2.502499893E-2
3.580355308E0,-1.099999994E-3,-5.499999970E-4,2.708750032E-2
3.582855826E0,-1.374999993E-4,-5.499999970E-4,2.928750031E-2
3.585356212E0,-1.374999993E-4,-1.649999991E-3,2.928750031E-2
3.587856826E0,-1.374999993E-4,1.649999991E-3,3.038750030E-2
3.590357366E0,9.624999948E-4,-5.499999970E-4,2.928750031E-2
3.592857737E0,9.624999948E-4,5.499999970E-4,2.928750031E-2
3.595358273E0,-1.374999993E-4,5.499999970E-4,3.038750030E-2
3.597858888E0,-1.374999993E-4,-1.649999991E-3,3.038750030E-2
3.600359275E0,-1.099999994E-3,1.649999991E-3,2.818750031E-2
3.602859797E0,-1.374999993E-4,-5.499999970E-4,2.928750031E-2
3.605360183E0,-1.374999993E-4,-1.649999991E-3,2.818750031E-2
3.607860797E0,-1.374999993E-4,-5.499999970E-4,2.818750031E-2
3.610361337E0,9.624999948E-4,5.499999970E-4,2.818750031E-2
3.612861722E0,-1.374999993E-4,-5.499999970E-4,2.708750032E-2
3.615362249E0,9.624999948E-4,5.499999970E-4,2.708750032E-2
3.617862865E0,-1.374999993E-4,5.499999970E-4,2.708750032E-2
3.620363251E0,-1.374999993E-4,-1.649999991E-3,2.392499894E-2
3.622863559E0,9.624999948E-4,5.499999970E-4,2.502499893E-2
3.625364200E0,-1.374999993E-4,-5.499999970E-4,2.612499893E-2
3.627864739E0,-1.374999993E-4,-5.499999970E-4,2.282499894E-2
3.630365125E0,9.624999948E-4,-5.499999970E-4,2.282499894E-2
3.632865662E0,-1.374999993E-4,-1.649999991E-3,2.282499894E-2
3.635366287E0,-1.374999993E-4,-5.499999970E-4,2.282499894E-2
3.637866674E0,-1.374999993E-4,-2.612499986E-3,2.392499894E-2
3.640367210E0,9.624999948E-4,-1.649999991E-3,2.076249942E-2
3.642867597E0,9.624999948E-4,-1.649999991E-3,1.966249943E-2
3.645368210E0,-1.374999993E-4,-1.649999991E-3,1.759999990E-2
3.647868761E0,-1.374999993E-4,-1.649999991E-3,1.966249943E-2
3.650369145E0,-1.099999994E-3,-5.499999970E-4,1.966249943E-2
3.652869682E0,9.624999948E-4,-1.649999991E-3,1.966249943E-2
3.655370297E0,9.624999948E-4,-1.649999991E-3,1.759999990E-2
3.657870688E0,-1.374999993E-4,5.499999970E-4,1.966249943E-2
3.660371224E0,-1.374999993E-4,5.499999970E-4,1.869999990E-2
3.662871611E0,-1.099999994E-3,5.499999970E-4,1.759999990E-2
3.665372224E0,-1.374999993E-4,-1.649999991E-3,1.759999990E-2
3.667872770E0,-1.374999993E-4,5.499999970E-4,1.649999991E-2
3.670373154E0,-1.374999993E-4,5.499999970E-4,1.539999992E-2
3.672873691E0,-1.374999993E-4,5.499999970E-4,1.223750040E-2
3.675374078E0,9.624999948E-4,5.499999970E-4,1.223750040E-2
3.677874667E0,-1.374999993E-4,5.499999970E-4,9.074999951E-3
3.680375207E0,-1.374999993E-4,-1.649999991E-3,6.874999963E-3
3.682875592E0,-1.374999993E-4,-5.499999970E-4,3.712499980E-3
3.685376128E0,9.624999948E-4,5.499999970E-4,2.612499986E-3
3.687876735E0,-1.099999994E-3,-5.499999970E-4,-5.499999970E-4
3.690377121E0,9.624999948E-4,5.499999970E-4,-3.712499980E-3
3.692877658E0,-1.374999993E-4,-5.499999970E-4,-5.774999969E-3
3.695378045E0,9.624999948E-4,-5.499999970E-4,-7.974999957E-3
3.697878658E0,-1.099999994E-3,-5.499999970E-4,-1.113750041E-2
3.700379188E0,-1.099999994E-3,-5.499999970E-4,-1.223750040E-2
3.702879573E0,-1.099999994E-3,-1.649999991E-3,-1.539999992E-2
3.705380109E0,-1.374999993E-4,-5.499999970E-4,-1.759999990E-2
3.707880496E0,-1.099999994E-3,-5.499999970E-4,-1.759999990E-2
3.710381033E0,-1.099999994E-3,-1.649999991E-3,-1.856249943E-2
3.712881648E0,-1.374999993E-4,-5.499999970E-4,-1.966249943E-2
3.715382035E0,-1.374999993E-4,5.499999970E-4,-2.076249942E-2
3.717882571E0,-1.099999994E-3,5.499999970E-4,-2.076249942E-2
3.720382958E0,-1.099999994E-3,5.499999970E-4,-1.966249943E-2
3.722883494E0,9.624999948E-4,-5.499999970E-4,-1.856249943E-2
3.725384110E0,-1.099999994E-3,-1.649999991E-3,-1.759999990E-2
3.727884496E0,-1.374999993E-4,-1.649999991E-3,-1.649999991E-2
3.730385048E0,-2.199999988E-3,5.499999970E-4,-1.539999992E-2
3.732885434E0,-1.099999994E-3,-5.499999970E-4,-1.429999992E-2
3.735386048E0,-1.374999993E-4,-5.499999970E-4,-1.429999992E-2
3.737886588E0,-1.099999994E-3,5.499999970E-4,-1.333750039E-2
3.740386973E0,-1.099999994E-3,-1.649999991E-3,-1.113750041E-2
3.742887509E0,-1.374999993E-4,-5.499999970E-4,-7.974999957E-3
3.745388125E0,-1.374999993E-4,-5.499999970E-4,-9.074999951E-3
3.747888511E0,-1.374999993E-4,-1.649999991E-3,-6.874999963E-3
3.750389048E0,-1.374999993E-4,-5.499999970E-4,-4.812499974E-3
3.752889434E0,-1.374999993E-4,-5.499999970E-4,-4.812499974E-3
3.755390048E0,-1.374999993E-4,-5.499999970E-4,-2.612499986E-3
3.757890588E0,-1.099999994E-3,-5.499999970E-4,-2.612499986E-3
3.760390973E0,-1.374999993E-4,1.649999991E-3,-2.612499986E-3
3.762891519E0,-1.374999993E-4,-5.499999970E-4,5.499999970E-4
3.765392135E0,-1.374999993E-4,5.499999970E-4,5.499999970E-4
3.767892521E0,2.062499989E-3,5.499999970E-4,1.649999991E-3
3.770393058E0,2.062499989E-3,-1.649999991E-3,5.499999970E-4
3.772893444E0,-1.374999993E-4,5.499999970E-4,1.649999991E-3
3.775393995E0,2.062499989E-3,-5.499999970E-4,-5.499999970E-4
3.777894610E0,9.624999948E-4,5.499999970E-4,-5.499999970E-4
3.780394920E0,9.624999948E-4,5.499999970E-4,-1.649999991E-3
3.782895533E0,9.624999948E-4,5.499999970E-4,5.499999970E-4
3.785395925E0,9.624999948E-4,-5.499999970E-4,-1.649999991E-3
3.787896461E0,-1.374999993E-4,-5.499999970E-4,-3.712499980E-3
3.790396848E0,-1.374999993E-4,-5.499999970E-4,-2.612499986E-3
3.792897461E0,9.624999948E-4,5.499999970E-4,-3.712499980E-3
3.795397973E0,9.624999948E-4,-5.499999970E-4,-2.612499986E-3
3.797898357E0,9.624999948E-4,-1.649999991E-3,-2.612499986E-3
3.800398894E0,-1.374999993E-4,-2.612499986E-3,-1.649999991E-3
3.802899509E0,2.062499989E-3,-5.499999970E-4,-1.649999991E-3
3.805399882E0,9.624999948E-4,-1.649999991E-3,-1.649999991E-3
3.807900418E0,2.062499989E-3,5.499999970E-4,-5.499999970E-4
3.810400805E0,9.624999948E-4,5.499999970E-4,5.499999970E-4
3.812901342E0,9.624999948E-4,5.499999970E-4,-5.499999970E-4
3.815401943E0,9.624999948E-4,5.499999970E-4,1.649999991E-3
3.817902330E0,9.624999948E-4,-5.499999970E-4,-1.649999991E-3
3.820402866E0,2.062499989E-3,-5.499999970E-4,-5.499999970E-4
3.822903253E0,9.624999948E-4,-5.499999970E-4,-2.612499986E-3
3.825403866E0,9.624999948E-4,-5.499999970E-4,5.499999970E-4
3.827904410E0,9.624999948E-4,-5.499999970E-4,5.499999970E-4
3.830404795E0,-1.374999993E-4,-5.499999970E-4,-5.499999970E-4
3.832905332E0,9.624999948E-4,-5.499999970E-4,5.499999970E-4
3.835405947E0,-1.374999993E-4,-1.649999991E-3,5.499999970E-4
3.837906339E0,2.062499989E-3,-5.499999970E-4,-2.612499986E-3
3.840406875E0,9.624999948E-4,-5.499999970E-4,-2.612499986E-3
3.842907262E0,9.624999948E-4,-5.499999970E-4,-2.612499986E-3
3.845407875E0,9.624999948E-4,-5.499999970E-4,-2.612499986E-3
3.847908406E0,-1.099999994E-3,5.499999970E-4,-1.649999991E-3
3.850408790E0,-1.099999994E-3,5.499999970E-4,-3.712499980E-3
3.852909327E0,-1.374999993E-4,-5.499999970E-4,-3.712499980E-3
3.855409942E0,-1.374999993E-4,5.499999970E-4,-3.712499980E-3
3.857910252E0,9.624999948E-4,-5.499999970E-4,-2.612499986E-3
3.860410904E0,2.062499989E-3,5.499999970E-4,-3.712499980E-3
3.862911291E0,-1.374999993E-4,5.499999970E-4,-4.812499974E-3
3.865411827E0,-1.374999993E-4,-1.649999991E-3,-5.774999969E-3
3.867912214E0,2.062499989E-3,5.499999970E-4,-4.812499974E-3
3.870412764E0,9.624999948E-4,-1.649999991E-3,-6.874999963E-3
3.872913380E0,9.624999948E-4,-1.649999991E-3,-9.074999951E-3
3.875413766E0,-1.099999994E-3,-5.499999970E-4,-1.113750041E-2
3.877914303E0,-1.374999993E-4,-5.499999970E-4,-1.113750041E-2
3.880414680E0,-1.374999993E-4,-5.499999970E-4,-1.223750040E-2
3.882915294E0,-1.374999993E-4,-1.649999991E-3,-1.333750039E-2
3.885415834E0,9.624999948E-4,-1.649999991E-3,-1.539999992E-2
3.887916219E0,2.062499989E-3,-5.499999970E-4,-1.649999991E-2
3.890416745E0,-1.099999994E-3,-5.499999970E-4,-1.429999992E-2
3.892917361E0,-1.374999993E-4,-5.499999970E-4,-1.539999992E-2
3.895417747E0,-1.374999993E-4,-5.499999970E-4,-1.333750039E-2
3.897918284E0,9.624999948E-4,5.499999970E-4,-1.429999992E-2
3.900418670E0,-1.374999993E-4,5.499999970E-4,-1.223750040E-2
3.902919284E0,2.062499989E-3,-5.499999970E-4,-1.113750041E-2
3.905419824E0,9.624999948E-4,-5.499999970E-4,-1.113750041E-2
3.907920209E0,9.624999948E-4,-1.649999991E-3,-1.003750041E-2
3.910420745E0,9.624999948E-4,5.499999970E-4,-9.074999951E-3
3.912921122E0,9.624999948E-4,5.499999970E-4,-6.874999963E-3
3.915421735E0,9.624999948E-4,-5.499999970E-4,-7.974999957E-3
3.917922276E0,9.624999948E-4,-5.499999970E-4,-5.774999969E-3
3.920422660E0,-1.374999993E-4,-5.499999970E-4,-4.812499974E-3
3.922923217E0,-1.374999993E-4,1.649999991E-3,-3.712499980E-3
3.925423832E0,-1.374999993E-4,-5.499999970E-4,-4.812499974E-3
3.927924219E0,-1.374999993E-4,-5.499999970E-4,-1.649999991E-3
3.930424755E0,-1.374999993E-4,5.499999970E-4,-2.612499986E-3
3.932925142E0,9.624999948E-4,-5.499999970E-4,-2.612499986E-3
3.935425679E0,-1.374999993E-4,1.649999991E-3,-3.712499980E-3
3.937926065E0,9.624999948E-4,-5.499999970E-4,-2.612499986E-3
3.940426679E0,9.624999948E-4,5.499999970E-4,-2.612499986E-3
3.942927219E0,-1.374999993E-4,-1.649999991E-3,-2.612499986E-3
3.945427599E0,-1.374999993E-4,1.649999991E-3,-5.499999970E-4
3.947928135E0,-1.374999993E-4,5.499999970E-4,5.499999970E-4
3.950428750E0,-1.099999994E-3,5.499999970E-4,1.649999991E-3
3.952929137E0,9.624999948E-4,5.499999970E-4,5.499999970E-4
3.955429655E0,-1.374999993E-4,5.499999970E-4,1.649999991E-3
3.957930041E0,-1.374999993E-4,-5.499999970E-4,1.649999991E-3
3.960430655E0,-1.374999993E-4,-5.499999970E-4,1.649999991E-3
3.962931195E0,-1.374999993E-4,5.499999970E-4,5.499999970E-4
3.965431580E0,9.624999948E-4,-5.499999970E-4,2.612499986E-3
3.967932149E0,-1.099999994E-3,5.499999970E-4,5.499999970E-4
3.970432536E0,-1.374999993E-4,-5.499999970E-4,1.649999991E-3
3.972933149E0,9.624999948E-4,5.499999970E-4,1.649999991E-3
3.975433690E0,-1.374999993E-4,5.499999970E-4,2.612499986E-3
3.977934060E0,9.624999948E-4,5.499999970E-4,5.499999970E-4
3.980434597E0,-1.374999993E-4,5.499999970E-4,2.612499986E-3
3.982935212E0,9.624999948E-4,-5.499999970E-4,2.612499986E-3
3.985435599E0,-1.374999993E-4,5.499999970E-4,3.712499980E-3
3.987936139E0,3.162499983E-3,-5.499999970E-4,3.712499980E-3
3.990436526E0,-1.374999993E-4,-5.499999970E-4,4.812499974E-3
3.992937139E0,-1.099999994E-3,-5.499999970E-4,4.812499974E-3
3.995437680E0,9.624999948E-4,-5.499999970E-4,4.812499974E-3
3.997938050E0,3.162499983E-3,1.649999991E-3,6.874999963E-3
4.000438587E0,-1.099999994E-3,-1.649999991E-3,5.912499968E-3
4.002939202E0,-1.374999993E-4,5.499999970E-4,5.912499968E-3
4.005439589E0,9.624999948E-4,-5.499999970E-4,6.874999963E-3
4.007940120E0,9.624999948E-4,5.499999970E-4,5.912499968E-3
4.010440507E0,9.624999948E-4,-1.649999991E-3,3.712499980E-3
4.012941043E0,9.624999948E-4,-5.499999970E-4,4.812499974E-3
4.015441430E0,9.624999948E-4,5.499999970E-4,4.812499974E-3
4.017941966E0,9.624999948E-4,-5.499999970E-4,1.649999991E-3
4.020442596E0,-1.374999993E-4,-5.499999970E-4,5.499999970E-4
4.022942982E0,2.062499989E-3,-5.499999970E-4,2.612499986E-3
4.025443519E0,9.624999948E-4,-5.499999970E-4,1.649999991E-3
4.027943905E0,-1.374999993E-4,-5.499999970E-4,5.499999970E-4
4.030444515E0,2.062499989E-3,-5.499999970E-4,1.649999991E-3
4.032945055E0,9.624999948E-4,5.499999970E-4,2.612499986E-3
4.035445440E0,-1.374999993E-4,5.499999970E-4,2.612499986E-3
4.037945976E0,-1.374999993E-4,5.499999970E-4,1.649999991E-3
4.040446587E0,9.624999948E-4,-1.649999991E-3,4.812499974E-3
4.042946973E0,-1.374999993E-4,5.499999970E-4,5.912499968E-3
4.045447510E0,-1.374999993E-4,-5.499999970E-4,5.912499968E-3
4.047947897E0,-1.099999994E-3,-5.499999970E-4,7.974999957E-3
4.050448505E0,9.624999948E-4,-5.499999970E-4,7.974999957E-3
4.052949045E0,9.624999948E-4,-1.649999991E-3,1.017499994E-2
4.055449430E0,-1.374999993E-4,5.499999970E-4,1.113750041E-2
4.057949966E0,-1.374999993E-4,-5.499999970E-4,1.333750039E-2
4.060450582E0,9.624999948E-4,5.499999970E-4,1.223750040E-2
4.062950979E0,9.624999948E-4,-5.499999970E-4,1.333750039E-2
4.065451515E0,-1.374999993E-4,5.499999970E-4,1.759999990E-2
4.067951902E0,-1.099999994E-3,-5.499999970E-4,1.869999990E-2
4.070452438E0,-1.374999993E-4,-5.499999970E-4,1.869999990E-2
4.072953052E0,-1.374999993E-4,-5.499999970E-4,2.186249942E-2
4.075453439E0,9.624999948E-4,-5.499999970E-4,2.282499894E-2
4.077953976E0,9.624999948E-4,-1.649999991E-3,2.502499893E-2
4.080454362E0,9.624999948E-4,-1.649999991E-3,2.612499893E-2
4.082954972E0,2.062499989E-3,-5.499999970E-4,2.708750032E-2
4.085455512E0,-1.374999993E-4,-1.649999991E-3,2.708750032E-2
4.087955897E0,9.624999948E-4,5.499999970E-4,2.928750031E-2
4.090456433E0,2.062499989E-3,-1.649999991E-3,3.464999795E-2
4.092956820E0,-1.374999993E-4,-1.649999991E-3,3.244999796E-2
4.095457413E0,9.624999948E-4,-5.499999970E-4,3.464999795E-2
4.097957954E0,-1.374999993E-4,5.499999970E-4,3.464999795E-2
4.100458338E0,-1.374999993E-4,5.499999970E-4,3.561250120E-2
4.102958875E0,2.062499989E-3,-5.499999970E-4,3.561250120E-2
4.105459266E0,2.062499989E-3,-5.499999970E-4,3.561250120E-2
4.107959880E0,9.624999948E-4,-5.499999970E-4,3.464999795E-2
4.110460420E0,-1.374999993E-4,-5.499999970E-4,3.355000168E-2
4.112960805E0,-1.374999993E-4,1.649999991E-3,3.464999795E-2
4.115461327E0,2.062499989E-3,1.649999991E-3,3.135000169E-2
4.117961714E0,-1.374999993E-4,5.499999970E-4,3.135000169E-2
4.120462327E0,9.624999948E-4,-5.499999970E-4,2.818750031E-2
4.122962868E0,-1.374999993E-4,-5.499999970E-4,2.928750031E-2
4.125463252E0,9.624999948E-4,5.499999970E-4,2.612499893E-2
4.127963803E0,9.624999948E-4,5.499999970E-4,2.502499893E-2
4.130464418E0,9.624999948E-4,5.499999970E-4,2.392499894E-2
4.132964805E0,-1.374999993E-4,-1.649999991E-3,2.076249942E-2
4.135465341E0,9.624999948E-4,1.649999991E-3,2.076249942E-2
4.137965704E0,-1.374999993E-4,-5.499999970E-4,1.966249943E-2
4.140466317E0,9.624999948E-4,-5.499999970E-4,1.539999992E-2
4.142966858E0,9.624999948E-4,5.499999970E-4,1.649999991E-2
4.145467242E0,9.624999948E-4,-1.649999991E-3,1.333750039E-2
4.147967803E0,2.062499989E-3,5.499999970E-4,1.443750039E-2
4.150468418E0,9.624999948E-4,-5.499999970E-4,1.113750041E-2
4.152968805E0,9.624999948E-4,5.499999970E-4,1.017499994E-2
4.155469341E0,-1.374999993E-4,-5.499999970E-4,7.974999957E-3
4.157969737E0,-1.374999993E-4,-1.649999991E-3,5.912499968E-3
4.160470273E0,-1.374999993E-4,-5.499999970E-4,5.912499968E-3
4.162970889E0,-1.374999993E-4,-5.499999970E-4,3.712499980E-3
4.165471275E0,-1.374999993E-4,1.649999991E-3,1.649999991E-3
4.167971812E0,9.624999948E-4,1.649999991E-3,1.649999991E-3
4.170472204E0,-1.374999993E-4,5.499999970E-4,-5.499999970E-4
4.172972817E0,-1.374999993E-4,-5.499999970E-4,5.499999970E-4
4.175473127E0,9.624999948E-4,5.499999970E-4,-1.649999991E-3
4.177973740E0,-1.099999994E-3,5.499999970E-4,-2.612499986E-3
4.180474273E0,-1.374999993E-4,5.499999970E-4,-1.649999991E-3
4.182974660E0,-1.374999993E-4,5.499999970E-4,-5.499999970E-4
4.185475197E0,-1.374999993E-4,5.499999970E-4,-5.499999970E-4
4.187975812E0,9.624999948E-4,-5.499999970E-4,5.499999970E-4
4.190476209E0,-1.374999993E-4,-5.499999970E-4,-5.499999970E-4
4.192976745E0,9.624999948E-4,5.499999970E-4,5.499999970E-4
4.195477132E0,9.624999948E-4,5.499999970E-4,5.499999970E-4
4.197977745E0,-1.374999993E-4,5.499999970E-4,1.649999991E-3
4.200478286E0,-1.374999993E-4,5.499999970E-4,2.612499986E-3
4.202978665E0,-1.374999993E-4,-5.499999970E-4,3.712499980E-3
4.205479202E0,-1.099999994E-3,-5.499999970E-4,5.499999970E-4
4.207979588E0,9.624999948E-4,5.499999970E-4,3.712499980E-3
4.210480202E0,-1.374999993E-4,-1.649999991E-3,-5.499999970E-4
4.212980756E0,-1.099999994E-3,-5.499999970E-4,1.649999991E-3
4.215481141E0,-1.374999993E-4,-5.499999970E-4,1.649999991E-3
4.217981677E0,-1.099999994E-3,-1.649999991E-3,5.499999970E-4
4.220482293E0,9.624999948E-4,5.499999970E-4,-2.612499986E-3
4.222982665E0,-1.099999994E-3,-5.499999970E-4,-2.612499986E-3
4.225483202E0,-1.099999994E-3,-1.649999991E-3,-3.712499980E-3
4.227983588E0,9.624999948E-4,-5.499999970E-4,-5.774999969E-3
4.230484202E0,-1.099999994E-3,-5.499999970E-4,-4.812499974E-3
4.232984747E0,9.624999948E-4,-5.499999970E-4,-5.774999969E-3
4.235485132E0,-1.099999994E-3,-5.499999970E-4,-7.974999957E-3
4.237985668E0,-1.374999993E-4,-1.649999991E-3,-7.974999957E-3
4.240486055E0,-1.099999994E-3,-1.649999991E-3,-9.074999951E-3
4.242986668E0,-1.374999993E-4,-5.499999970E-4,-1.113750041E-2
4.245487209E0,-1.374999993E-4,-1.649999991E-3,-1.113750041E-2
4.247987593E0,-1.374999993E-4,5.499999970E-4,-1.113750041E-2
4.250488130E0,-1.374999993E-4,-1.649999991E-3,-1.429999992E-2
4.252988516E0,-1.374999993E-4,-5.499999970E-4,-1.429999992E-2
4.255489043E0,-1.099999994E-3,-1.649999991E-3,-1.539999992E-2
4.257989658E0,-1.099999994E-3,-1.649999991E-3,-1.649999991E-2
4.260490045E0,-2.199999988E-3,-1.649999991E-3,-1.539999992E-2
4.262990581E0,-1.374999993E-4,-1.649999991E-3,-1.649999991E-2
4.265490982E0,-1.374999993E-4,-5.499999970E-4,-1.759999990E-2
4.267991595E0,-1.374999993E-4,-5.499999970E-4,-1.649999991E-2
4.270492136E0,-1.099999994E-3,-5.499999970E-4,-1.759999990E-2
4.272992520E0,-2.199999988E-3,-2.612499986E-3,-1.429999992E-2
4.275493081E0,-2.199999988E-3,5.499999970E-4,-1.429999992E-2
4.277993696E0,-1.374999993E-4,-5.499999970E-4,-1.113750041E-2
4.280494083E0,-1.374999993E-4,-5.499999970E-4,-1.003750041E-2
4.282994619E0,-1.374999993E-4,-1.649999991E-3,-1.003750041E-2
4.285495006E0,-1.374999993E-4,-5.499999970E-4,-5.774999969E-3
4.287995624E0,-1.099999994E-3,5.499999970E-4,-5.774999969E-3
4.290496165E0,-1.374999993E-4,-1.649999991E-3,-4.812499974E-3
4.292996550E0,-1.374999993E-4,5.499999970E-4,-5.499999970E-4
4.295497086E0,-2.199999988E-3,-5.499999970E-4,5.499999970E-4
4.297997473E0,-1.374999993E-4,-5.499999970E-4,1.649999991E-3
4.300498086E0,-1.099999994E-3,-1.649999991E-3,3.712499980E-3
4.302998626E0,-1.374999993E-4,5.499999970E-4,2.612499986E-3
4.305499011E0,-1.099999994E-3,-1.649999991E-3,5.912499968E-3
4.307999539E0,2.062499989E-3,-1.649999991E-3,7.974999957E-3
4.310500154E0,-1.099999994E-3,-5.499999970E-4,7.974999957E-3
4.313000541E0,-1.099999994E-3,-5.499999970E-4,1.017499994E-2
4.315501077E0,-1.099999994E-3,5.499999970E-4,1.113750041E-2
4.318001440E0,-1.374999993E-4,-5.499999970E-4,1.223750040E-2
4.320502053E0,-1.374999993E-4,5.499999970E-4,1.223750040E-2
4.323002594E0,-2.199999988E-3,-5.499999970E-4,1.443750039E-2
4.325502978E0,9.624999948E-4,-5.499999970E-4,1.759999990E-2
4.328003505E0,-1.374999993E-4,-5.499999970E-4,1.649999991E-2
4.330503891E0,-1.374999993E-4,5.499999970E-4,1.966249943E-2
4.333004428E0,-1.374999993E-4,5.499999970E-4,2.076249942E-2
4.335504814E0,9.624999948E-4,5.499999970E-4,2.076249942E-2
4.338005438E0,-1.099999994E-3,-5.499999970E-4,2.076249942E-2
4.340505978E0,-1.374999993E-4,-5.499999970E-4,2.282499894E-2
4.343006363E0,9.624999948E-4,-1.649999991E-3,2.282499894E-2
4.345506899E0,-1.374999993E-4,-5.499999970E-4,2.282499894E-2
4.348007515E0,-1.374999993E-4,-5.499999970E-4,2.502499893E-2
4.350507915E0,9.624999948E-4,5.499999970E-4,2.612499893E-2
4.353008452E0,-1.374999993E-4,5.499999970E-4,2.612499893E-2
4.355508838E0,-1.099999994E-3,-1.649999991E-3,2.928750031E-2
4.358009452E0,-1.099999994E-3,5.499999970E-4,3.038750030E-2
4.360509983E0,-1.374999993E-4,-5.499999970E-4,3.135000169E-2
4.363010368E0,-2.199999988E-3,5.499999970E-4,3.355000168E-2
4.365510904E0,-1.374999993E-4,-5.499999970E-4,3.561250120E-2
4.368011520E0,9.624999948E-4,-5.499999970E-4,3.671250120E-2
4.370511886E0,-1.374999993E-4,5.499999970E-4,3.781250119E-2
4.373012423E0,-1.374999993E-4,-5.499999970E-4,3.987500072E-2
4.375512809E0,-1.374999993E-4,5.499999970E-4,4.097500071E-2
4.378013346E0,9.624999948E-4,5.499999970E-4,4.207500070E-2
4.380513961E0,-1.374999993E-4,5.499999970E-4,4.413750023E-2
4.383014348E0,-1.374999993E-4,-5.499999970E-4,4.523750022E-2
4.385514884E0,9.624999948E-4,-5.499999970E-4,4.743750021E-2
4.388015271E0,-1.374999993E-4,5.499999970E-4,4.839999974E-2
4.390515908E0,9.624999948E-4,5.499999970E-4,5.059999973E-2
4.393016449E0,-1.374999993E-4,5.499999970E-4,5.486249924E-2
4.395516833E0,-1.374999993E-4,-5.499999970E-4,5.376249924E-2
4.398017370E0,9.624999948E-4,-1.649999991E-3,5.486249924E-2
4.400517985E0,9.624999948E-4,1.649999991E-3,5.582499877E-2
4.403018266E0,9.624999948E-4,5.499999970E-4,5.582499877E-2
4.405518879E0,9.624999948E-4,-5.499999970E-4,5.582499877E-2
4.408019266E0,2.062499989E-3,5.499999970E-4,5.802499875E-2
4.410519802E0,2.062499989E-3,1.649999991E-3,5.582499877E-2
4.413020204E0,3.162499983E-3,1.649999991E-3,5.582499877E-2
4.415520741E0,-1.374999993E-4,5.499999970E-4,5.486249924E-2
4.418021356E0,-1.099999994E-3,1.649999991E-3,5.376249924E-2
4.420521743E0,9.624999948E-4,-5.499999970E-4,5.156249925E-2
4.423022293E0,-1.374999993E-4,1.649999991E-3,5.156249925E-2
4.425522680E0,-1.374999993E-4,1.649999991E-3,5.156249925E-2
4.428023293E0,-1.374999993E-4,-1.649999991E-3,4.949999973E-2
4.430523834E0,9.624999948E-4,5.499999970E-4,4.743750021E-2
4.433024218E0,9.624999948E-4,5.499999970E-4,4.523750022E-2
4.435524755E0,-1.374999993E-4,1.649999991E-3,4.207500070E-2
4.438025370E0,-1.374999993E-4,5.499999970E-4,3.987500072E-2
4.440525757E0,-1.374999993E-4,-5.499999970E-4,3.781250119E-2
4.443026264E0,9.624999948E-4,5.499999970E-4,3.561250120E-2
4.445526651E0,-1.374999993E-4,5.499999970E-4,3.244999796E-2
4.448027187E0,9.624999948E-4,5.499999970E-4,3.244999796E-2
4.450527803E0,9.624999948E-4,1.649999991E-3,2.708750032E-2
4.453028189E0,9.624999948E-4,5.499999970E-4,2.502499893E-2
4.455528736E0,9.624999948E-4,-1.649999991E-3,2.186249942E-2
4.458029122E0,-1.374999993E-4,-1.649999991E-3,1.649999991E-2
4.460529736E0,9.624999948E-4,-5.499999970E-4,1.649999991E-2
4.463030276E0,9.624999948E-4,-5.499999970E-4,1.443750039E-2
4.465530661E0,9.624999948E-4,-5.499999970E-4,1.223750040E-2
4.468031197E0,-1.374999993E-4,-5.499999970E-4,1.223750040E-2
4.470531584E0,-1.374999993E-4,1.649999991E-3,9.074999951E-3
4.473032197E0,2.062499989E-3,5.499999970E-4,6.874999963E-3
4.475532752E0,-1.374999993E-4,5.499999970E-4,4.812499974E-3
4.478033136E0,-1.374999993E-4,5.499999970E-4,3.712499980E-3
4.480533673E0,2.062499989E-3,5.499999970E-4,1.649999991E-3
4.483034288E0,9.624999948E-4,5.499999970E-4,-5.499999970E-4
4.485534627E0,-1.374999993E-4,-5.499999970E-4,1.649999991E-3
4.488035240E0,-1.374999993E-4,-5.499999970E-4,5.499999970E-4
4.490535627E0,-1.374999993E-4,-1.649999991E-3,-2.612499986E-3
4.493036163E0,9.624999948E-4,-5.499999970E-4,-2.612499986E-3
4.495536555E0,9.624999948E-4,-1.649999991E-3,-3.712499980E-3
4.498037168E0,-1.374999993E-4,-1.649999991E-3,-3.712499980E-3
4.500537709E0,-1.374999993E-4,-1.649999991E-3,-3.712499980E-3
4.503038093E0,9.624999948E-4,-5.499999970E-4,-4.812499974E-3
4.505538630E0,3.162499983E-3,-1.649999991E-3,-5.774999969E-3
4.508039245E0,9.624999948E-4,-5.499999970E-4,-4.812499974E-3
4.510539632E0,9.624999948E-4,5.499999970E-4,-4.812499974E-3
4.513040168E0,-1.374999993E-4,-5.499999970E-4,-5.774999969E-3
4.515540555E0,-1.374999993E-4,-5.499999970E-4,-3.712499980E-3
4.518041092E0,-1.374999993E-4,-5.499999970E-4,-2.612499986E-3
4.520541692E0,-1.374999993E-4,5.499999970E-4,-2.612499986E-3
4.523042079E0,9.624999948E-4,-1.649999991E-3,-1.649999991E-3
4.525542615E0,2.062499989E-3,5.499999970E-4,-5.499999970E-4
4.528043002E0,-1.374999993E-4,-5.499999970E-4,-5.499999970E-4
4.530543630E0,9.624999948E-4,-5.499999970E-4,5.499999970E-4
4.533044170E0,-1.374999993E-4,5.499999970E-4,5.499999970E-4
4.535544555E0,9.624999948E-4,5.499999970E-4,5.499999970E-4
4.538045092E0,-1.374999993E-4,-2.612499986E-3,1.649999991E-3
4.540545735E0,-1.374999993E-4,-1.649999991E-3,3.712499980E-3
4.543046122E0,9.624999948E-4,5.499999970E-4,4.812499974E-3
4.545546658E0,9.624999948E-4,-5.499999970E-4,7.974999957E-3
4.548047045E0,-1.374999993E-4,-5.499999970E-4,7.974999957E-3
4.550547658E0,9.624999948E-4,-1.649999991E-3,1.017499994E-2
4.553047968E0,-1.099999994E-3,-1.649999991E-3,1.017499994E-2
4.555548581E0,-1.099999994E-3,5.499999970E-4,1.223750040E-2
4.558049120E0,-1.099999994E-3,-5.499999970E-4,1.223750040E-2
4.560549506E0,9.624999948E-4,-5.499999970E-4,1.223750040E-2
4.563050043E0,-1.374999993E-4,-5.499999970E-4,1.333750039E-2
4.565550429E0,9.624999948E-4,-5.499999970E-4,1.223750040E-2
4.568051043E0,9.624999948E-4,-1.649999991E-3,1.223750040E-2
4.570551583E0,9.624999948E-4,-5.499999970E-4,1.539999992E-2
4.573051968E0,9.624999948E-4,5.499999970E-4,1.223750040E-2
4.575552509E0,-1.099999994E-3,5.499999970E-4,1.443750039E-2
4.578053125E0,-1.374999993E-4,-5.499999970E-4,1.539999992E-2
4.580553511E0,9.624999948E-4,-1.649999991E-3,1.759999990E-2
4.583054048E0,-1.374999993E-4,-5.499999970E-4,1.539999992E-2
4.585554409E0,2.062499989E-3,5.499999970E-4,1.759999990E-2
4.588055023E0,9.624999948E-4,5.499999970E-4,1.759999990E-2
4.590555563E0,-1.099999994E-3,5.499999970E-4,2.076249942E-2
4.593055948E0,-1.099999994E-3,-5.499999970E-4,2.282499894E-2
4.595556498E0,-1.374999993E-4,5.499999970E-4,2.282499894E-2
4.598056885E0,-1.374999993E-4,-5.499999970E-4,2.502499893E-2
4.600557498E0,9.624999948E-4,-5.499999970E-4,2.708750032E-2
4.603058039E0,-1.374999993E-4,-5.499999970E-4,2.708750032E-2
4.605558423E0,-1.099999994E-3,-1.649999991E-3,3.038750030E-2
4.608058960E0,-1.374999993E-4,-5.499999970E-4,3.038750030E-2
4.610559575E0,2.062499989E-3,-1.649999991E-3,3.135000169E-2
4.613059962E0,-1.099999994E-3,-5.499999970E-4,3.244999796E-2
4.615560513E0,-1.374999993E-4,-1.649999991E-3,3.355000168E-2
4.618060900E0,9.624999948E-4,5.499999970E-4,3.355000168E-2
4.620561513E0,-1.374999993E-4,-5.499999970E-4,3.355000168E-2
4.623062054E0,-1.099999994E-3,5.499999970E-4,3.464999795E-2
4.625562438E0,-1.374999993E-4,5.499999970E-4,3.464999795E-2
4.628062975E0,-1.374999993E-4,-1.649999991E-3,3.244999796E-2
4.630563362E0,-1.099999994E-3,5.499999970E-4,3.464999795E-2
4.633063975E0,2.062499989E-3,-1.649999991E-3,3.355000168E-2
4.635564529E0,-1.374999993E-4,5.499999970E-4,3.244999796E-2
4.638064914E0,-1.374999993E-4,-5.499999970E-4,3.135000169E-2
4.640565450E0,-1.374999993E-4,-1.649999991E-3,3.244999796E-2
4.643065837E0,-1.374999993E-4,5.499999970E-4,3.135000169E-2
4.645566374E0,9.624999948E-4,-5.499999970E-4,3.038750030E-2
4.648067004E0,9.624999948E-4,-1.649999991E-3,2.928750031E-2
4.650567391E0,9.624999948E-4,5.499999970E-4,2.818750031E-2
4.653067927E0,2.062499989E-3,5.499999970E-4,2.612499893E-2
4.655568314E0,-1.374999993E-4,-5.499999970E-4,2.392499894E-2
4.658068936E0,-1.099999994E-3,5.499999970E-4,2.186249942E-2
4.660569477E0,9.624999948E-4,-1.649999991E-3,1.869999990E-2
4.663069861E0,9.624999948E-4,5.499999970E-4,1.966249943E-2
4.665570398E0,9.624999948E-4,-5.499999970E-4,1.649999991E-2
4.668071013E0,-1.374999993E-4,5.499999970E-4,1.539999992E-2
4.670571400E0,-1.374999993E-4,1.649999991E-3,1.539999992E-2
4.673071936E0,-1.374999993E-4,5.499999970E-4,1.333750039E-2
4.675572323E0,9.624999948E-4,1.649999991E-3,1.113750041E-2
4.678072845E0,9.624999948E-4,5.499999970E-4,1.017499994E-2
4.680573461E0,-1.374999993E-4,1.649999991E-3,9.074999951E-3
4.683073847E0,9.624999948E-4,-5.499999970E-4,9.074999951E-3
4.685574384E0,-1.374999993E-4,5.499999970E-4,5.912499968E-3
4.688074770E0,9.624999948E-4,5.499999970E-4,6.874999963E-3
4.690575393E0,-1.374999993E-4,-5.499999970E-4,5.912499968E-3
4.693075933E0,-2.199999988E-3,-5.499999970E-4,4.812499974E-3
4.695576318E0,9.624999948E-4,-5.499999970E-4,2.612499986E-3
4.698076854E0,9.624999948E-4,-5.499999970E-4,4.812499974E-3
4.700577456E0,9.624999948E-4,-5.499999970E-4,1.649999991E-3
4.703077842E0,9.624999948E-4,-1.649999991E-3,1.649999991E-3
4.705578379E0,-1.099999994E-3,-5.499999970E-4,2.612499986E-3
4.708078765E0,-1.374999993E-4,1.649999991E-3,2.612499986E-3
4.710579263E0,-1.374999993E-4,-1.649999991E-3,2.612499986E-3
4.713079649E0,-1.374999993E-4,-5.499999970E-4,1.649999991E-3
4.715580186E0,-1.374999993E-4,-5.499999970E-4,5.499999970E-4
4.718080801E0,-1.374999993E-4,-5.499999970E-4,-5.499999970E-4
4.720581188E0,9.624999948E-4,5.499999970E-4,-5.499999970E-4
4.723081720E0,-1.374999993E-4,-1.649999991E-3,5.499999970E-4
4.725582107E0,-1.374999993E-4,5.499999970E-4,5.499999970E-4
4.728082720E0,2.062499989E-3,-5.499999970E-4,-2.612499986E-3
4.730583261E0,-1.374999993E-4,-5.499999970E-4,-2.612499986E-3
4.733083621E0,-1.374999993E-4,-5.499999970E-4,-4.812499974E-3
4.735584158E0,-1.099999994E-3,-5.499999970E-4,-6.874999963E-3
4.738084773E0,9.624999948E-4,-5.499999970E-4,-7.974999957E-3
4.740585160E0,-1.099999994E-3,-1.649999991E-3,-9.074999951E-3
4.743085696E0,-1.099999994E-3,-5.499999970E-4,-1.223750040E-2
4.745586102E0,-1.099999994E-3,5.499999970E-4,-1.333750039E-2
4.748086639E0,-1.374999993E-4,-1.649999991E-3,-1.856249943E-2
4.750587254E0,-1.374999993E-4,-1.649999991E-3,-1.759999990E-2
4.753087641E0,-1.374999993E-4,-5.499999970E-4,-2.282499894E-2
4.755588172E0,-1.374999993E-4,-1.649999991E-3,-2.502499893E-2
4.758088559E0,-1.374999993E-4,-1.649999991E-3,-2.612499893E-2
4.760589172E0,-1.099999994E-3,5.499999970E-4,-2.928750031E-2
4.763089712E0,-1.374999993E-4,5.499999970E-4,-3.244999796E-2
4.765590097E0,9.624999948E-4,-2.612499986E-3,-3.244999796E-2
4.768090615E0,-1.374999993E-4,-1.649999991E-3,-3.355000168E-2
4.770591230E0,-1.374999993E-4,1.649999991E-3,-3.781250119E-2
4.773091617E0,-2.199999988E-3,-3.712499980E-3,-3.781250119E-2
4.775592153E0,-1.099999994E-3,5.499999970E-4,-3.781250119E-2
4.778092535E0,-1.099999994E-3,-2.612499986E-3,-4.097500071E-2
4.780593071E0,-1.099999994E-3,-5.499999970E-4,-3.987500072E-2
4.783093458E0,-1.099999994E-3,-1.649999991E-3,-4.207500070E-2
4.785594071E0,-2.199999988E-3,-1.649999991E-3,-4.303750023E-2
4.788094598E0,-1.099999994E-3,-1.649999991E-3,-4.413750023E-2
4.790594982E0,9.624999948E-4,-5.499999970E-4,-4.207500070E-2
4.793095519E0,-1.099999994E-3,-1.649999991E-3,-4.633750021E-2
4.795595905E0,-1.374999993E-4,-5.499999970E-4,-4.633750021E-2
4.798096504E0,-2.199999988E-3,-1.649999991E-3,-4.523750022E-2
4.800597044E0,-1.374999993E-4,-5.499999970E-4,-4.523750022E-2
4.803097429E0,-1.099999994E-3,-1.649999991E-3,-4.413750023E-2
4.805597965E0,-1.099999994E-3,-1.649999991E-3,-4.413750023E-2
4.808098581E0,-1.374999993E-4,-5.499999970E-4,-4.207500070E-2
4.810598953E0,-2.199999988E-3,-1.649999991E-3,-4.097500071E-2
4.813099490E0,-1.099999994E-3,-1.649999991E-3,-3.987500072E-2
4.815599876E0,-1.374999993E-4,-1.649999991E-3,-4.097500071E-2
4.818100413E0,9.624999948E-4,5.499999970E-4,-3.781250119E-2
4.820600999E0,-1.099999994E-3,-2.612499986E-3,-3.561250120E-2
4.823101386E0,-1.374999993E-4,-1.649999991E-3,-3.671250120E-2
4.825601922E0,-1.374999993E-4,-1.649999991E-3,-3.451250121E-2
4.828102309E0,-1.374999993E-4,-5.499999970E-4,-3.355000168E-2
4.830602922E0,-1.374999993E-4,-5.499999970E-4,-3.244999796E-2
4.833103439E0,-1.374999993E-4,-1.649999991E-3,-3.355000168E-2
4.835603823E0,-1.374999993E-4,-5.499999970E-4,-3.135000169E-2
4.838104360E0,-1.099999994E-3,-1.649999991E-3,-3.038750030E-2
4.840604975E0,-1.374999993E-4,-5.499999970E-4,-2.612499893E-2
4.843105366E0,-1.374999993E-4,-5.499999970E-4,-2.282499894E-2
4.845605674E0,-1.099999994E-3,5.499999970E-4,-2.282499894E-2
4.848106287E0,-1.099999994E-3,-1.649999991E-3,-1.856249943E-2
4.850606825E0,-1.099999994E-3,-1.649999991E-3,-1.649999991E-2
4.853107441E0,-1.374999993E-4,-1.649999991E-3,-1.333750039E-2
4.855607751E0,9.624999948E-4,-1.649999991E-3,-1.003750041E-2
4.858108364E0,-1.099999994E-3,-1.649999991E-3,-5.774999969E-3
4.860608751E0,9.624999948E-4,-1.649999991E-3,-4.812499974E-3
4.863109364E0,-1.099999994E-3,1.649999991E-3,-2.612499986E-3
4.865609674E0,-1.374999993E-4,-5.499999970E-4,5.499999970E-4
4.868110287E0,-1.374999993E-4,5.499999970E-4,5.499999970E-4
4.870610826E0,-1.374999993E-4,-5.499999970E-4,1.649999991E-3
4.873111212E0,-1.374999993E-4,-5.499999970E-4,4.812499974E-3
4.875611749E0,9.624999948E-4,-5.499999970E-4,6.874999963E-3
4.878112364E0,-1.374999993E-4,-1.649999991E-3,6.874999963E-3
4.880612751E0,9.624999948E-4,1.649999991E-3,7.974999957E-3
4.883113287E0,9.624999948E-4,5.499999970E-4,9.074999951E-3
4.885613694E0,-1.374999993E-4,1.649999991E-3,1.113750041E-2
4.888114230E0,-1.374999993E-4,-5.499999970E-4,1.113750041E-2
4.890614846E0,2.062499989E-3,5.499999970E-4,1.223750040E-2
4.893115232E0,-1.374999993E-4,-5.499999970E-4,1.443750039E-2
4.895615769E0,-1.374999993E-4,-5.499999970E-4,1.443750039E-2
4.898116164E0,9.624999948E-4,-5.499999970E-4,1.539999992E-2
4.900616778E0,9.624999948E-4,1.649999991E-3,1.539999992E-2
4.903117087E0,2.062499989E-3,5.499999970E-4,1.649999991E-2
4.905617701E0,9.624999948E-4,5.499999970E-4,1.649999991E-2
4.908118273E0,9.624999948E-4,-5.499999970E-4,1.966249943E-2
4.910618889E0,-1.374999993E-4,1.649999991E-3,1.759999990E-2
4.913119198E0,2.062499989E-3,-5.499999970E-4,1.759999990E-2
4.915619812E0,9.624999948E-4,5.499999970E-4,1.966249943E-2
4.918120188E0,9.624999948E-4,1.649999991E-3,1.966249943E-2
4.920620725E0,9.624999948E-4,-5.499999970E-4,2.076249942E-2
4.923121111E0,9.624999948E-4,1.649999991E-3,2.076249942E-2
4.925621725E0,-1.374999993E-4,-1.649999991E-3,1.966249943E-2
4.928122270E0,-1.374999993E-4,-5.499999970E-4,2.076249942E-2
4.930622655E0,9.624999948E-4,5.499999970E-4,1.966249943E-2
4.933123191E0,9.624999948E-4,5.499999970E-4,1.869999990E-2
4.935623807E0,9.624999948E-4,5.499999970E-4,1.869999990E-2
4.938124183E0,-1.374999993E-4,-5.499999970E-4,1.869999990E-2
4.940624720E0,2.062499989E-3,5.499999970E-4,1.759999990E-2
4.943125106E0,9.624999948E-4,-1.649999991E-3,1.759999990E-2
4.945625720E0,-1.374999993E-4,-5.499999970E-4,1.759999990E-2
4.948126030E0,2.062499989E-3,-1.649999991E-3,1.649999991E-2
4.950626648E0,9.624999948E-4,-5.499999970E-4,1.759999990E-2
4.953127186E0,3.162499983E-3,5.499999970E-4,1.759999990E-2
4.955627573E0,9.624999948E-4,5.499999970E-4,1.649999991E-2
4.958128109E0,3.162499983E-3,5.499999970E-4,1.443750039E-2
4.960628740E0,2.062499989E-3,-5.499999970E-4,1.539999992E-2
4.963129126E0,9.624999948E-4,5.499999970E-4,1.539999992E-2
4.965629663E0,9.624999948E-4,5.499999970E-4,1.443750039E-2
4.968130050E0,9.624999948E-4,5.499999970E-4,1.333750039E-2
4.970630667E0,2.062499989E-3,1.649999991E-3,1.333750039E-2
4.973131207E0,9.624999948E-4,1.649999991E-3,1.113750041E-2
4.975631592E0,9.624999948E-4,5.499999970E-4,1.113750041E-2
4.978132129E0,9.624999948E-4,5.499999970E-4,1.223750040E-2
4.980632506E0,-1.099999994E-3,5.499999970E-4,1.113750041E-2
4.983133120E0,-1.374999993E-4,-5.499999970E-4,1.223750040E-2
4.985633429E0,9.624999948E-4,-5.499999970E-4,1.333750039E-2
4.988134043E0,-1.374999993E-4,5.499999970E-4,1.443750039E-2
4.990634581E0,-1.374999993E-4,1.649999991E-3,1.539999992E-2
4.993135196E0,2.062499989E-3,5.499999970E-4,1.649999991E-2
4.995635583E0,9.624999948E-4,1.649999991E-3,1.869999990E-2
4.998136120E0,9.624999948E-4,5.499999970E-4,2.076249942E-2
5.000636515E0,2.062499989E-3,5.499999970E-4,2.502499893E-2
5.003137129E0,9.624999948E-4,5.499999970E-4,2.818750031E-2
5.005637438E0,2.062499989E-3,1.649999991E-3,3.355000168E-2
5.008138052E0,-1.374999993E-4,1.649999991E-3,4.207500070E-2
5.010638590E0,9.624999948E-4,-5.499999970E-4,4.949999973E-2
5.013138977E0,2.062499989E-3,2.612499986E-3,5.692499876E-2
5.015639513E0,2.062499989E-3,1.649999991E-3,6.764999777E-2
5.018139900E0,2.062499989E-3,2.612499986E-3,7.713750005E-2
5.020640513E0,2.062499989E-3,1.649999991E-3,8.786249906E-2
5.023141064E0,2.062499989E-3,1.649999991E-3,1.027124971E-1
5.025641448E0,3.162499983E-3,2.612499986E-3,1.175625026E-1
5.028141985E0,3.162499983E-3,1.649999991E-3,1.335124969E-1
5.030642600E0,4.124999978E-3,2.612499986E-3,1.516624987E-1
5.033142982E0,9.624999948E-4,2.612499986E-3,1.783374995E-1
5.035643518E0,3.162499983E-3,-5.499999970E-4,2.037750036E-1
5.038143905E0,3.162499983E-3,-2.612499986E-3,2.356749922E-1
5.040644518E0,3.162499983E-3,-2.612499986E-3,2.697750032E-1
