"Time (s)","Acceleration x (m/s^2)","Acceleration y (m/s^2)","Acceleration z (m/s^2)"
2.700492000E-2,2.590500116E-1,-6.795000285E-2,9.817050934E0
2.951265400E-2,2.860500216E-1,-7.095000148E-2,9.846000671E0
3.201980700E-2,2.620500028E-1,-4.695000127E-2,9.858000755E0
3.452127100E-2,2.380500138E-1,-1.095000096E-2,9.822000504E0
3.702134800E-2,2.020500153E-1,-5.400000140E-2,9.810000420E0
3.952166600E-2,2.020500153E-1,-7.800000161E-2,9.870000839E0
4.202228100E-2,2.520000041E-1,-7.605000585E-2,9.844050407E0
4.452258900E-2,3.000000119E-1,-4.500000179E-2,9.786000252E0
4.702320200E-2,3.070500195E-1,-4.005000368E-2,9.801000595E0
4.952350700E-2,2.950500250E-1,-6.405000389E-2,9.865050316E0
5.202404300E-2,3.460500240E-1,-1.020000055E-1,9.868050575E0
5.452443000E-2,3.859500289E-1,-1.039500013E-1,9.798000336E0
5.702496600E-2,3.480000198E-1,-1.039500013E-1,9.814950943E0
5.952536200E-2,2.779500186E-1,-1.189500093E-1,9.859950066E0
6.202589800E-2,3.120000064E-1,-8.805000782E-2,9.834000587E0
6.452628500E-2,3.499500155E-1,-1.140000075E-1,9.805050850E0
6.702659300E-2,3.529500067E-1,-1.330500096E-1,9.865050316E0
6.952712900E-2,3.289500177E-1,-1.140000075E-1,9.859950066E0
7.202773100E-2,2.860500216E-1,-9.705000371E-2,9.814950943E0
7.452804000E-2,2.329500169E-1,-1.159500033E-1,9.835950851E0
7.702865400E-2,2.089500129E-1,-1.159500033E-1,9.892050743E0
7.952896300E-2,2.550000250E-1,-8.805000782E-2,9.835950851E0
8.202935700E-2,2.809500098E-1,-7.995000482E-2,9.784050941E0
8.452989300E-2,2.760000229E-1,-8.295000345E-2,9.835950851E0
8.703028000E-2,2.520000041E-1,-8.295000345E-2,9.874950409E0
8.953081700E-2,2.710500062E-1,-8.295000345E-2,9.847950935E0
9.203121300E-2,2.880000174E-1,-8.295000345E-2,9.822000504E0
9.453152100E-2,2.329500169E-1,-7.095000148E-2,9.841050148E0
9.703205700E-2,2.639999986E-1,-9.495000541E-2,9.832050323E0
9.953244400E-2,3.240000010E-1,-8.295000345E-2,9.813000679E0
1.020329850E-1,3.259500265E-1,-1.069500074E-1,9.826950073E0
1.045333720E-1,3.360000253E-1,-1.000500023E-1,9.865050316E0
1.070339090E-1,3.019500077E-1,-8.805000782E-2,9.844050407E0
1.095342950E-1,2.760000229E-1,-1.069500074E-1,9.817050934E0
1.120346030E-1,2.400000095E-1,-1.429500133E-1,9.846000671E0
1.145352350E-1,2.380500138E-1,-1.309500039E-1,9.859950066E0
1.170355450E-1,3.019500077E-1,-9.705000371E-2,9.825000763E0
1.195361580E-1,2.620500028E-1,-7.995000482E-2,9.801000595E0
1.220364680E-1,2.040000111E-1,-8.295000345E-2,9.883950233E0
1.245370810E-1,1.879500151E-1,-1.069500074E-1,9.871950150E0
1.270373910E-1,1.800000072E-1,-1.090500057E-1,9.838950157E0
1.295379280E-1,1.560000032E-1,-9.000000358E-2,9.835950851E0
1.320383140E-1,1.350000054E-1,-4.905000329E-2,9.850950241E0
1.345388550E-1,1.560000032E-1,-2.805000171E-2,9.813000679E0
1.370392410E-1,1.900500059E-1,-6.795000285E-2,9.832050323E0
1.395397780E-1,1.920000017E-1,-7.605000585E-2,9.871950150E0
1.420400870E-1,1.900500059E-1,-5.205000192E-2,9.886950493E0
1.445407060E-1,1.800000072E-1,-1.050000079E-3,9.805050850E0
1.470410160E-1,1.489500105E-1,-5.895000324E-2,9.798000336E0
1.495414000E-1,1.399500072E-1,-7.095000148E-2,9.858000755E0
1.520419370E-1,1.900500059E-1,-5.400000140E-2,9.841050148E0
1.545423230E-1,2.110500038E-1,-6.105000153E-2,9.817050934E0
1.570428750E-1,1.800000072E-1,-5.700000376E-2,9.829050064E0
1.595432610E-1,1.249500066E-1,-4.005000368E-2,9.882000923E0
1.620437980E-1,1.009500027E-1,-6.405000389E-2,9.850950241E0
1.645441840E-1,8.700000495E-2,-9.705000371E-2,9.825000763E0
1.670447160E-1,5.595000088E-2,-8.295000345E-2,9.847950935E0
1.695451030E-1,6.105000153E-2,-4.905000329E-2,9.850950241E0
1.720456390E-1,9.405000508E-2,-4.695000127E-2,9.822000504E0
1.745459490E-1,7.005000114E-2,-4.695000127E-2,9.835950851E0
1.770463310E-1,4.095000029E-2,-2.100000158E-2,9.892050743E0
1.795468700E-1,1.500000060E-2,1.950000064E-3,9.865050316E0
1.820472560E-1,6.000000052E-3,0.000000000E0,9.814950943E0
1.845477930E-1,-1.005000062E-2,-1.095000096E-2,9.825000763E0
1.870481790E-1,7.950000465E-3,-1.800000109E-2,9.862950325E0
1.895484870E-1,6.105000153E-2,1.005000062E-2,9.835950851E0
1.920490240E-1,7.304999977E-2,1.395000052E-2,9.814950943E0
1.945494100E-1,3.405000269E-2,1.695000008E-2,9.862950325E0
1.970499470E-1,1.800000109E-2,1.005000062E-2,9.868050575E0
1.995503370E-1,3.195000067E-2,7.050000131E-3,9.825000763E0
2.020508740E-1,2.700000070E-2,-9.000000544E-3,9.820050240E0
2.045512600E-1,3.000000026E-3,2.400000021E-2,9.862950325E0
2.070517970E-1,3.705000132E-2,4.305000231E-2,9.835950851E0
2.095521520E-1,4.905000329E-2,3.299999982E-2,9.813000679E0
2.120526880E-1,-1.305000018E-2,-4.050000105E-3,9.850950241E0
2.145530750E-1,-2.895000204E-2,0.000000000E0,9.889050484E0
2.170536110E-1,-1.305000018E-2,2.595000155E-2,9.847950935E0
2.195540110E-1,-3.405000269E-2,3.105000220E-2,9.814950943E0
2.220545470E-1,-8.205000311E-2,2.595000155E-2,9.865050316E0
2.245548570E-1,-3.195000067E-2,2.595000155E-2,9.868050575E0
2.270552400E-1,7.950000465E-3,3.795000166E-2,9.829050064E0
2.295557780E-1,-1.050000079E-3,6.705000252E-2,9.825000763E0
2.320561650E-1,-3.705000132E-2,8.100000024E-2,9.870000839E0
2.345567010E-1,-2.700000070E-2,7.695000619E-2,9.838950157E0
2.370570880E-1,-1.305000018E-2,3.600000218E-2,9.826950073E0
2.395576240E-1,-3.000000026E-3,3.105000220E-2,9.834000587E0
2.420580160E-1,2.205000073E-2,6.495000422E-2,9.870000839E0
2.445585520E-1,7.500000298E-2,8.400000632E-2,9.817050934E0
2.470589390E-1,2.700000070E-2,7.905000448E-2,9.838950157E0
2.495594750E-1,-4.950000439E-3,5.700000376E-2,9.877050400E0
2.520598620E-1,6.000000052E-3,3.600000218E-2,9.870000839E0
2.545601560E-1,5.595000088E-2,5.505000427E-2,9.820050240E0
2.570606920E-1,2.205000073E-2,5.295000225E-2,9.826950073E0
2.595610790E-1,2.700000070E-2,4.995000362E-2,9.846000671E0
2.620616150E-1,1.800000109E-2,5.505000427E-2,9.847950935E0
2.645619730E-1,2.205000073E-2,5.505000427E-2,9.841050148E0
2.670625090E-1,2.700000070E-2,5.505000427E-2,9.859950066E0
2.695628960E-1,1.500000060E-2,7.905000448E-2,9.868050575E0
2.720632040E-1,5.100000277E-2,7.905000448E-2,9.841050148E0
2.745637210E-1,5.100000277E-2,4.500000179E-2,9.808050156E0
2.770641080E-1,3.000000119E-2,5.295000225E-2,9.868050575E0
2.795646440E-1,7.695000619E-2,1.030500084E-1,9.847950935E0
2.820650310E-1,1.009500027E-1,1.050000042E-1,9.813000679E0
2.845655670E-1,9.900000691E-2,8.100000024E-2,9.834000587E0
2.870659250E-1,9.195000678E-2,7.395000011E-2,9.858000755E0
2.895664610E-1,1.230000034E-1,9.300000221E-2,9.846000671E0
2.920668480E-1,1.540500075E-1,1.030500084E-1,9.810000420E0
2.945673840E-1,1.399500072E-1,1.030500084E-1,9.813000679E0
2.970677810E-1,1.369500011E-1,8.400000632E-2,9.847950935E0
2.995683180E-1,1.489500105E-1,9.300000221E-2,9.822000504E0
3.020687040E-1,1.200000048E-1,8.400000632E-2,9.825000763E0
3.045690120E-1,1.300500035E-1,1.030500084E-1,9.871950150E0
3.070695420E-1,1.609500051E-1,1.099500060E-1,9.856050491E0
3.095699290E-1,1.660500020E-1,7.200000435E-2,9.825000763E0
3.120704650E-1,1.560000032E-1,5.700000376E-2,9.838950157E0
3.145708520E-1,1.399500072E-1,5.295000225E-2,9.871950150E0
3.170713790E-1,1.900500059E-1,1.170000061E-1,9.835950851E0
3.195717660E-1,2.070000172E-1,8.400000632E-2,9.825000763E0
3.220723030E-1,1.759500057E-1,7.200000435E-2,9.870000839E0
3.245726120E-1,1.950000077E-1,7.395000011E-2,9.862950325E0
3.270729950E-1,2.190000117E-1,7.200000435E-2,9.834000587E0
3.295735330E-1,2.500500083E-1,8.100000024E-2,9.805050850E0
3.320739200E-1,2.670000196E-1,9.600000083E-2,9.826950073E0
3.345744560E-1,2.620500028E-1,9.795000404E-2,9.846000671E0
3.370748470E-1,2.449500114E-1,7.905000448E-2,9.829050064E0
3.395753840E-1,2.380500138E-1,7.695000619E-2,9.826950073E0
3.420757700E-1,2.740500271E-1,9.795000404E-2,9.870000839E0
3.445763070E-1,3.240000010E-1,1.120500043E-1,9.829050064E0
3.470766930E-1,2.950500250E-1,1.080000028E-1,9.801000595E0
3.495771970E-1,2.670000196E-1,8.400000632E-2,9.820050240E0
3.520775830E-1,2.310000062E-1,1.050000042E-1,9.850950241E0
3.545778910E-1,2.520000041E-1,1.170000061E-1,9.817050934E0
3.570784280E-1,2.740500271E-1,1.150500029E-1,9.814950943E0
3.595787950E-1,2.950500250E-1,9.600000083E-2,9.858000755E0
3.620793320E-1,2.689500153E-1,8.895000070E-2,9.858000755E0
3.645797180E-1,2.740500271E-1,8.400000632E-2,9.834000587E0
3.670802550E-1,2.620500028E-1,8.595000207E-2,9.826950073E0
3.695806310E-1,3.190500140E-1,9.600000083E-2,9.835950851E0
3.720809390E-1,3.190500140E-1,9.105000645E-2,9.829050064E0
3.745815520E-1,2.980500162E-1,7.695000619E-2,9.858000755E0
3.770820910E-1,3.019500077E-1,7.905000448E-2,9.853050232E0
3.795824680E-1,3.340500295E-1,9.600000083E-2,9.847950935E0
3.820830050E-1,3.889500201E-1,9.105000645E-2,9.822000504E0
3.845833920E-1,3.649500310E-1,8.595000207E-2,9.820050240E0
3.870836990E-1,3.240000010E-1,9.600000083E-2,9.846000671E0
3.895842360E-1,2.809500098E-1,1.150500029E-1,9.846000671E0
3.920846030E-1,3.000000119E-1,1.009500027E-1,9.841050148E0
3.945851400E-1,3.340500295E-1,1.240500063E-1,9.826950073E0
3.970855260E-1,3.430500031E-1,1.200000048E-1,9.853050232E0
3.995860630E-1,3.070500195E-1,1.150500029E-1,9.834000587E0
4.020863530E-1,2.689500153E-1,1.120500043E-1,9.813000679E0
4.045867350E-1,2.550000250E-1,1.290000081E-1,9.820050240E0
4.070872740E-1,2.569500208E-1,1.390500069E-1,9.829050064E0
4.095876410E-1,2.639999986E-1,1.170000061E-1,9.846000671E0
4.120881780E-1,2.500500083E-1,1.080000028E-1,9.832050323E0
4.145885640E-1,2.689500153E-1,1.030500084E-1,9.853050232E0
4.170891010E-1,3.070500195E-1,1.290000081E-1,9.846000671E0
4.195894880E-1,3.289500177E-1,1.170000061E-1,9.820050240E0
4.220900240E-1,3.070500195E-1,9.300000221E-2,9.822000504E0
4.245903870E-1,2.639999986E-1,1.099500060E-1,9.841050148E0
4.270909230E-1,2.670000196E-1,1.050000042E-1,9.856050491E0
4.295913100E-1,3.070500195E-1,1.120500043E-1,9.844050407E0
4.320918460E-1,3.460500240E-1,1.150500029E-1,9.846000671E0
4.345921420E-1,3.310500085E-1,1.030500084E-1,9.834000587E0
4.370925240E-1,2.710500062E-1,8.595000207E-2,9.829050064E0
4.395930630E-1,2.350500077E-1,1.150500029E-1,9.834000587E0
4.420934500E-1,2.280000150E-1,1.410000026E-1,9.829050064E0
4.445939570E-1,2.329500169E-1,1.410000026E-1,9.820050240E0
4.470943440E-1,2.310000062E-1,1.319999993E-1,9.850950241E0
4.495948800E-1,2.020500153E-1,9.795000404E-2,9.865050316E0
4.520952670E-1,2.020500153E-1,1.290000081E-1,9.868050575E0
4.545955690E-1,2.230500132E-1,1.440000087E-1,9.826950073E0
4.570961060E-1,1.900500059E-1,1.579500139E-1,9.805050850E0
4.595964930E-1,2.040000111E-1,1.459500045E-1,9.826950073E0
4.620970290E-1,1.660500020E-1,1.219500080E-1,9.826950073E0
4.645974160E-1,1.680000126E-1,1.200000048E-1,9.850950241E0
4.670979330E-1,2.040000111E-1,1.410000026E-1,9.846000671E0
4.695983200E-1,2.740500271E-1,1.339500099E-1,9.858000755E0
4.720988560E-1,2.779500186E-1,1.270500124E-1,9.822000504E0
4.745992430E-1,2.310000062E-1,1.009500027E-1,9.835950851E0
4.770997740E-1,1.879500151E-1,1.120500043E-1,9.834000587E0
4.796001610E-1,2.089500129E-1,1.240500063E-1,9.844050407E0
4.821006970E-1,2.449500114E-1,1.099500060E-1,9.829050064E0
4.846010840E-1,2.350500077E-1,9.795000404E-2,9.825000763E0
4.871013920E-1,2.280000150E-1,1.099500060E-1,9.846000671E0
4.896019280E-1,1.920000017E-1,1.240500063E-1,9.834000587E0
4.921023150E-1,1.800000072E-1,1.099500060E-1,9.834000587E0
4.946028510E-1,1.469999999E-1,1.319999993E-1,9.826950073E0
4.971032040E-1,1.350000054E-1,1.219500080E-1,9.835950851E0
4.996037400E-1,1.180500090E-1,1.200000048E-1,9.856050491E0
5.021041270E-1,1.200000048E-1,1.120500043E-1,9.858000755E0
5.046046630E-1,1.609500051E-1,1.150500029E-1,9.853050232E0
5.071049540E-1,1.900500059E-1,1.200000048E-1,9.835950851E0
5.096055670E-1,1.680000126E-1,1.009500027E-1,9.844050407E0
5.121058770E-1,1.369500011E-1,1.050000042E-1,9.844050407E0
5.146062620E-1,1.590000093E-1,1.219500080E-1,9.847950935E0
5.171067980E-1,1.990500093E-1,1.150500029E-1,9.820050240E0
5.196071990E-1,2.569500208E-1,9.600000083E-2,9.846000671E0
5.221077350E-1,2.350500077E-1,7.905000448E-2,9.834000587E0
5.246081220E-1,2.620500028E-1,8.895000070E-2,9.846000671E0
5.271086580E-1,2.350500077E-1,9.105000645E-2,9.838950157E0
5.296090450E-1,2.209500074E-1,8.895000070E-2,9.825000763E0
5.321095820E-1,2.230500132E-1,8.400000632E-2,9.829050064E0
5.346099680E-1,2.140500098E-1,7.395000011E-2,9.834000587E0
5.371102760E-1,1.830000132E-1,5.505000427E-2,9.858000755E0
5.396108120E-1,1.900500059E-1,6.495000422E-2,9.846000671E0
5.421111900E-1,2.190000117E-1,6.495000422E-2,9.834000587E0
5.446117260E-1,2.260500044E-1,8.100000024E-2,9.814950943E0
5.471121130E-1,1.729500145E-1,7.200000435E-2,9.832050323E0
5.496126500E-1,1.249500066E-1,6.705000252E-2,9.847950935E0
5.521130450E-1,1.710000038E-1,6.000000238E-2,9.853050232E0
5.546135820E-1,2.160000056E-1,9.600000083E-2,9.847950935E0
5.571139680E-1,2.400000095E-1,7.695000619E-2,9.850950241E0
5.596145050E-1,2.430000156E-1,5.295000225E-2,9.844050407E0
5.621148910E-1,2.400000095E-1,4.995000362E-2,9.841050148E0
5.646154280E-1,2.310000062E-1,6.195000187E-2,9.844050407E0
5.671158140E-1,2.620500028E-1,8.400000632E-2,9.820050240E0
5.696161220E-1,3.100500107E-1,6.000000238E-2,9.825000763E0
5.721166590E-1,3.169500232E-1,3.600000218E-2,9.838950157E0
5.746170450E-1,3.100500107E-1,2.400000021E-2,9.870000839E0
5.771175820E-1,3.259500265E-1,2.895000204E-2,9.853050232E0
5.796179680E-1,3.409500122E-1,4.095000029E-2,9.825000763E0
5.821185050E-1,3.100500107E-1,4.095000029E-2,9.832050323E0
5.846188860E-1,2.710500062E-1,2.595000155E-2,9.844050407E0
5.871194230E-1,2.569500208E-1,2.400000021E-2,9.847950935E0
5.896197330E-1,2.779500186E-1,2.205000073E-2,9.844050407E0
5.921201150E-1,2.830500007E-1,2.595000155E-2,9.853050232E0
5.946206540E-1,2.809500098E-1,7.050000131E-3,9.844050407E0
5.971210690E-1,2.670000196E-1,1.005000062E-2,9.846000671E0
5.996216060E-1,2.350500077E-1,3.105000220E-2,9.853050232E0
6.021219920E-1,2.280000150E-1,3.795000166E-2,9.844050407E0
6.046225290E-1,2.760000229E-1,1.395000052E-2,9.841050148E0
6.071229300E-1,3.100500107E-1,2.595000155E-2,9.825000763E0
6.096234670E-1,3.000000119E-1,7.050000131E-3,9.858000755E0
6.121238540E-1,3.100500107E-1,2.400000021E-2,9.865050316E0
6.146243900E-1,3.600000143E-1,1.395000052E-2,9.846000671E0
6.171247910E-1,3.889500201E-1,3.105000220E-2,9.817050934E0
6.196253270E-1,3.480000198E-1,-4.050000105E-3,9.841050148E0
6.221257140E-1,3.379500210E-1,-1.305000018E-2,9.829050064E0
6.246260210E-1,3.409500122E-1,-1.605000161E-2,9.829050064E0
6.271265580E-1,3.769500256E-1,-1.095000096E-2,9.856050491E0
6.296269540E-1,3.979500234E-1,-1.800000109E-2,9.850950241E0
6.321274910E-1,3.840000033E-1,-3.000000119E-2,9.822000504E0
6.346278780E-1,3.220500052E-1,-3.000000119E-2,9.825000763E0
6.371284140E-1,2.520000041E-1,-2.295000106E-2,9.838950157E0
6.396288050E-1,2.449500114E-1,-1.305000018E-2,9.853050232E0
6.421291120E-1,3.019500077E-1,-2.100000158E-2,9.826950073E0
6.446296490E-1,3.360000253E-1,-3.299999982E-2,9.829050064E0
6.471300350E-1,2.550000250E-1,-4.500000179E-2,9.862950325E0
6.496305680E-1,2.449500114E-1,-4.005000368E-2,9.862950325E0
6.521309550E-1,2.760000229E-1,-1.800000109E-2,9.834000587E0
6.546314910E-1,2.809500098E-1,-4.050000105E-3,9.834000587E0
6.571318780E-1,2.779500186E-1,0.000000000E0,9.846000671E0
6.596324090E-1,2.760000229E-1,-4.005000368E-2,9.820050240E0
6.621327960E-1,2.760000229E-1,-1.095000096E-2,9.834000587E0
6.646333320E-1,3.070500195E-1,1.395000052E-2,9.858000755E0
6.671337190E-1,3.550500274E-1,2.400000021E-2,9.859950066E0
6.696342690E-1,3.550500274E-1,-1.050000079E-3,9.820050240E0
6.721346560E-1,2.860500216E-1,-2.295000106E-2,9.829050064E0
6.746351920E-1,2.280000150E-1,-1.800000109E-2,9.829050064E0
6.771355020E-1,2.620500028E-1,-1.050000079E-3,9.841050148E0
6.796359090E-1,3.169500232E-1,1.395000052E-2,9.825000763E0
6.821364470E-1,3.120000064E-1,-1.050000079E-3,9.844050407E0
6.846368340E-1,2.260500044E-1,-3.000000119E-2,9.853050232E0
6.871373700E-1,1.800000072E-1,-3.705000132E-2,9.841050148E0
6.896377570E-1,1.710000038E-1,-1.800000109E-2,9.841050148E0
6.921383030E-1,1.710000038E-1,-1.095000096E-2,9.853050232E0
6.946386900E-1,1.639500111E-1,-2.505000122E-2,9.844050407E0
6.971389980E-1,1.729500145E-1,-9.000000544E-3,9.825000763E0
6.996396110E-1,1.540500075E-1,-1.605000161E-2,9.847950935E0
7.021399160E-1,1.440000087E-1,-6.000000052E-3,9.877050400E0
7.046405290E-1,1.990500093E-1,0.000000000E0,9.826950073E0
7.071408390E-1,1.729500145E-1,1.950000064E-3,9.822000504E0
7.096414520E-1,1.200000048E-1,1.395000052E-2,9.835950851E0
7.121417620E-1,1.090500057E-1,1.395000052E-2,9.846000671E0
7.146422790E-1,1.759500057E-1,3.299999982E-2,9.817050934E0
7.171426660E-1,2.230500132E-1,3.600000218E-2,9.826950073E0
7.196432020E-1,1.900500059E-1,3.299999982E-2,9.846000671E0
7.221435890E-1,1.469999999E-1,1.905000024E-2,9.846000671E0
7.246441260E-1,1.060500070E-1,1.695000008E-2,9.825000763E0
7.271445490E-1,7.995000482E-2,2.400000021E-2,9.853050232E0
7.296448570E-1,9.405000508E-2,2.895000204E-2,9.859950066E0
7.321453930E-1,1.180500090E-1,2.895000204E-2,9.835950851E0
7.346457800E-1,9.405000508E-2,1.200000010E-2,9.826950073E0
7.371463210E-1,3.405000269E-2,2.400000021E-2,9.862950325E0
7.396467080E-1,3.000000026E-3,1.905000024E-2,9.868050575E0
7.421472450E-1,4.605000094E-2,3.299999982E-2,9.822000504E0
7.446476310E-1,3.195000067E-2,0.000000000E0,9.832050323E0
7.471481730E-1,-3.195000067E-2,1.695000008E-2,9.856050491E0
7.496484820E-1,-3.405000269E-2,2.205000073E-2,9.870000839E0
7.521490960E-1,3.195000067E-2,6.900000572E-2,9.832050323E0
7.546494050E-1,5.595000088E-2,6.495000422E-2,9.834000587E0
7.571500380E-1,4.605000094E-2,3.299999982E-2,9.871950150E0
7.596504240E-1,3.705000132E-2,1.395000052E-2,9.844050407E0
7.621509610E-1,-1.050000079E-3,4.305000231E-2,9.825000763E0
7.646512710E-1,-4.395000264E-2,5.700000376E-2,9.846000671E0
7.671516530E-1,6.000000052E-3,8.400000632E-2,9.874950409E0
7.696521630E-1,7.005000114E-2,7.200000435E-2,9.814950943E0
7.721525490E-1,4.905000329E-2,7.905000448E-2,9.829050064E0
7.746530860E-1,-4.950000439E-3,6.900000572E-2,9.870000839E0
7.771534720E-1,-1.005000062E-2,6.195000187E-2,9.853050232E0
7.796539960E-1,3.000000026E-3,7.200000435E-2,9.814950943E0
7.821543820E-1,-2.505000122E-2,6.195000187E-2,9.826950073E0
7.846546900E-1,-4.905000329E-2,4.095000029E-2,9.856050491E0
7.871552270E-1,-2.205000073E-2,4.095000029E-2,9.844050407E0
7.896556130E-1,6.000000052E-3,7.395000011E-2,9.841050148E0
7.921561500E-1,-2.700000070E-2,5.505000427E-2,9.868050575E0
7.946565360E-1,-3.900000080E-2,6.195000187E-2,9.862950325E0
7.971570730E-1,-1.695000008E-2,4.800000042E-2,9.829050064E0
7.996574540E-1,-5.295000225E-2,3.105000220E-2,9.841050148E0
8.021579910E-1,-5.295000225E-2,4.500000179E-2,9.859950066E0
8.046583770E-1,6.000000052E-3,7.695000619E-2,9.846000671E0
8.071589140E-1,4.395000264E-2,8.595000207E-2,9.814950943E0
8.096593010E-1,2.205000073E-2,7.695000619E-2,9.846000671E0
8.121596210E-1,-7.950000465E-3,6.495000422E-2,9.886950493E0
8.146602350E-1,3.705000132E-2,4.995000362E-2,9.822000504E0
8.171605440E-1,3.705000132E-2,3.105000220E-2,9.820050240E0
8.196611580E-1,3.900000080E-2,1.395000052E-2,9.835950851E0
8.221614670E-1,3.405000269E-2,1.395000052E-2,9.865050316E0
8.246619850E-1,3.705000132E-2,1.695000008E-2,9.826950073E0
8.271623720E-1,4.605000094E-2,2.595000155E-2,9.829050064E0
8.296629080E-1,2.700000070E-2,4.950000439E-3,9.877050400E0
8.321632950E-1,4.905000329E-2,-4.005000368E-2,9.853050232E0
8.346638260E-1,3.705000132E-2,-6.795000285E-2,9.822000504E0
8.371642130E-1,3.705000132E-2,-6.795000285E-2,9.825000763E0
8.396647490E-1,3.195000067E-2,-6.599999964E-2,9.883950233E0
8.421650590E-1,1.009500027E-1,-4.905000329E-2,9.844050407E0
8.446656820E-1,1.159500033E-1,-9.000000358E-2,9.825000763E0
8.471659920E-1,8.895000070E-2,-1.000500023E-1,9.853050232E0
8.496666050E-1,1.039500013E-1,-7.995000482E-2,9.874950409E0
8.521669150E-1,1.300500035E-1,-6.105000153E-2,9.835950851E0
8.546672900E-1,1.230000034E-1,-4.005000368E-2,9.820050240E0
8.571678260E-1,1.440000087E-1,-6.795000285E-2,9.856050491E0
8.596682130E-1,1.639500111E-1,-4.695000127E-2,9.838950157E0
8.621687490E-1,2.020500153E-1,-4.500000179E-2,9.829050064E0
8.646691120E-1,1.800000072E-1,-3.495000303E-2,9.858000755E0
8.671696480E-1,1.759500057E-1,-3.705000132E-2,9.868050575E0
8.696700350E-1,2.040000111E-1,-7.095000148E-2,9.826950073E0
8.721705710E-1,2.260500044E-1,-7.800000161E-2,9.808050156E0
8.746709050E-1,2.110500038E-1,-7.995000482E-2,9.859950066E0
8.771712880E-1,2.040000111E-1,-5.205000192E-2,9.865050316E0
8.796718260E-1,2.449500114E-1,-3.299999982E-2,9.820050240E0
8.821722130E-1,2.400000095E-1,-4.695000127E-2,9.826950073E0
8.846727590E-1,2.280000150E-1,-5.205000192E-2,9.862950325E0
8.871731460E-1,2.569500208E-1,-3.705000132E-2,9.847950935E0
8.896736820E-1,2.670000196E-1,-1.050000079E-3,9.820050240E0
8.921740690E-1,2.310000062E-1,3.299999982E-2,9.835950851E0
8.946743770E-1,2.470500171E-1,3.600000218E-2,9.859950066E0
8.971748790E-1,2.980500162E-1,6.705000252E-2,9.832050323E0
8.996752660E-1,3.100500107E-1,7.695000619E-2,9.832050323E0
9.021758020E-1,2.779500186E-1,7.695000619E-2,9.862950325E0
9.046761890E-1,2.899500132E-1,6.000000238E-2,9.847950935E0
9.071767250E-1,2.929500043E-1,7.695000619E-2,9.802950859E0
9.096770930E-1,2.860500216E-1,6.900000572E-2,9.825000763E0
9.121776290E-1,2.590500116E-1,8.100000024E-2,9.858000755E0
9.146780160E-1,2.899500132E-1,7.695000619E-2,9.846000671E0
9.171785530E-1,2.779500186E-1,8.400000632E-2,9.817050934E0
9.196789530E-1,2.710500062E-1,6.495000422E-2,9.844050407E0
9.221794900E-1,2.590500116E-1,4.305000231E-2,9.868050575E0
9.246798760E-1,2.860500216E-1,6.195000187E-2,9.820050240E0
9.271804130E-1,2.880000174E-1,4.095000029E-2,9.832050323E0
9.296807130E-1,2.740500271E-1,3.795000166E-2,9.853050232E0
9.321810960E-1,3.070500195E-1,3.600000218E-2,9.853050232E0
9.346816350E-1,3.409500122E-1,4.500000179E-2,9.814950943E0
9.371820210E-1,3.259500265E-1,6.000000238E-2,9.832050323E0
9.396825580E-1,3.240000010E-1,6.705000252E-2,9.870000839E0
9.421829580E-1,3.619500101E-1,5.505000427E-2,9.829050064E0
9.446834950E-1,3.720000088E-1,5.700000376E-2,9.801000595E0
9.471838810E-1,3.499500155E-1,8.400000632E-2,9.838950157E0
9.496844180E-1,3.649500310E-1,1.099500060E-1,9.865050316E0
9.521847410E-1,3.769500256E-1,1.200000048E-1,9.838950157E0
9.546853550E-1,3.840000033E-1,1.030500084E-1,9.826950073E0
9.571856650E-1,3.889500201E-1,6.495000422E-2,9.862950325E0
9.596860490E-1,3.910500109E-1,8.400000632E-2,9.838950157E0
9.621865860E-1,3.889500201E-1,1.030500084E-1,9.808050156E0
9.646869720E-1,3.720000088E-1,1.150500029E-1,9.826950073E0
9.671875090E-1,3.619500101E-1,1.030500084E-1,9.870000839E0
9.696878950E-1,4.030500054E-1,1.030500084E-1,9.841050148E0
9.721884370E-1,4.339500070E-1,8.895000070E-2,9.822000504E0
9.746888230E-1,3.859500289E-1,9.300000221E-2,9.870000839E0
9.771893600E-1,3.889500201E-1,1.170000061E-1,9.862950325E0
9.796897470E-1,4.150500298E-1,1.200000048E-1,9.820050240E0
9.821902690E-1,4.030500054E-1,1.030500084E-1,9.798000336E0
9.846905790E-1,4.170000255E-1,9.300000221E-2,9.844050407E0
9.871909610E-1,4.200000167E-1,1.240500063E-1,9.846000671E0
9.896915000E-1,4.320000112E-1,1.360500008E-1,9.826950073E0
9.921919150E-1,4.099500179E-1,1.390500069E-1,9.844050407E0
9.946924520E-1,4.050000310E-1,1.459500045E-1,9.862950325E0
9.971928380E-1,4.390500188E-1,1.440000087E-1,9.832050323E0
9.996933750E-1,4.050000310E-1,1.720500141E-1,9.810000420E0
1.002193762E0,3.529500067E-1,1.800000072E-1,9.841050148E0
1.004694308E0,3.529500067E-1,1.750500053E-1,9.850950241E0
1.007194695E0,3.810000122E-1,1.840500087E-1,9.822000504E0
1.009695231E0,3.550500274E-1,1.600500047E-1,9.835950851E0
1.012195618E0,3.240000010E-1,1.560000032E-1,9.859950066E0
1.014696130E0,3.139500022E-1,1.579500139E-1,9.835950851E0
1.017196517E0,3.000000119E-1,1.459500045E-1,9.805050850E0
1.019696825E0,2.929500043E-1,1.600500047E-1,9.832050323E0
1.022197361E0,2.779500186E-1,1.630500108E-1,9.858000755E0
1.024697743E0,2.740500271E-1,1.720500141E-1,9.835950851E0
1.027198279E0,2.860500216E-1,1.560000032E-1,9.822000504E0
1.029698666E0,2.779500186E-1,1.150500029E-1,9.868050575E0
1.032199202E0,3.070500195E-1,1.360500008E-1,9.865050316E0
1.034699613E0,2.950500250E-1,1.440000087E-1,9.790950775E0
1.037200149E0,2.500500083E-1,1.440000087E-1,9.835950851E0
1.039700459E0,2.329500169E-1,1.390500069E-1,9.870000839E0
1.042200842E0,2.740500271E-1,1.240500063E-1,9.844050407E0
1.044701380E0,3.000000119E-1,8.895000070E-2,9.829050064E0
1.047201748E0,2.689500153E-1,8.100000024E-2,9.835950851E0
1.049702284E0,2.310000062E-1,8.400000632E-2,9.868050575E0
1.052202671E0,2.070000172E-1,8.895000070E-2,9.825000763E0
1.054703207E0,1.920000017E-1,6.705000252E-2,9.825000763E0
1.057203589E0,1.879500151E-1,3.299999982E-2,9.850950241E0
1.059704125E0,1.990500093E-1,1.005000062E-2,9.847950935E0
1.062204512E0,2.070000172E-1,2.595000155E-2,9.822000504E0
1.064705048E0,1.399500072E-1,1.395000052E-2,9.853050232E0
1.067205445E0,1.399500072E-1,-1.095000096E-2,9.871950150E0
1.069705982E0,1.780500114E-1,-1.095000096E-2,9.844050407E0
1.072206368E0,1.900500059E-1,-6.000000052E-3,9.813000679E0
1.074706676E0,1.440000087E-1,-4.050000105E-3,9.856050491E0
1.077207226E0,1.369500011E-1,-4.050000105E-3,9.858000755E0
1.079707613E0,1.729500145E-1,0.000000000E0,9.853050232E0
1.082208149E0,2.190000117E-1,-5.205000192E-2,9.844050407E0
1.084708536E0,2.140500098E-1,-2.505000122E-2,9.858000755E0
1.087209072E0,2.070000172E-1,0.000000000E0,9.850950241E0
1.089709459E0,1.800000072E-1,3.600000218E-2,9.817050934E0
1.092209767E0,1.639500111E-1,1.395000052E-2,9.813000679E0
1.094710380E0,1.900500059E-1,-1.050000079E-3,9.856050491E0
1.097210685E0,2.190000117E-1,1.395000052E-2,9.846000671E0
1.099711298E0,2.110500038E-1,1.905000024E-2,9.835950851E0
1.102211608E0,1.540500075E-1,1.395000052E-2,9.846000671E0
1.104712144E0,1.420500129E-1,2.895000204E-2,9.859950066E0
1.107212507E0,1.900500059E-1,4.800000042E-2,9.825000763E0
1.109713044E0,1.660500020E-1,5.700000376E-2,9.805050850E0
1.112213430E0,1.319999993E-1,4.095000029E-2,9.865050316E0
1.114713967E0,1.399500072E-1,5.505000427E-2,9.856050491E0
1.117214353E0,1.780500114E-1,4.095000029E-2,9.835950851E0
1.119714890E0,1.969500035E-1,2.595000155E-2,9.841050148E0
1.122215276E0,2.070000172E-1,4.500000179E-2,9.862950325E0
1.124715813E0,2.140500098E-1,8.100000024E-2,9.835950851E0
1.127216199E0,2.140500098E-1,7.200000435E-2,9.826950073E0
1.129716521E0,2.310000062E-1,4.800000042E-2,9.838950157E0
1.132217058E0,2.929500043E-1,3.299999982E-2,9.859950066E0
1.134717444E0,3.289500177E-1,4.995000362E-2,9.841050148E0
1.137217981E0,3.120000064E-1,3.105000220E-2,9.853050232E0
1.139718372E0,2.950500250E-1,2.895000204E-2,9.853050232E0
1.142218909E0,2.980500162E-1,2.400000021E-2,9.847950935E0
1.144719295E0,3.220500052E-1,3.600000218E-2,9.810000420E0
1.147219832E0,3.139500022E-1,2.205000073E-2,9.820050240E0
1.149720228E0,2.779500186E-1,1.200000010E-2,9.859950066E0
1.152220765E0,2.860500216E-1,1.950000064E-3,9.835950851E0
1.154721152E0,2.929500043E-1,-2.805000171E-2,9.847950935E0
1.157221688E0,2.929500043E-1,-4.200000316E-2,9.834000587E0
1.159721982E0,2.899500132E-1,-4.500000179E-2,9.850950241E0
1.162222595E0,2.590500116E-1,-1.800000109E-2,9.814950943E0
1.164722905E0,2.280000150E-1,-3.000000119E-2,9.829050064E0
1.167223518E0,2.470500171E-1,-8.505000174E-2,9.856050491E0
1.169723828E0,3.019500077E-1,-1.140000075E-1,9.847950935E0
1.172224213E0,3.480000198E-1,-9.000000358E-2,9.822000504E0
1.174724749E0,3.120000064E-1,-7.995000482E-2,9.847950935E0
1.177225136E0,2.779500186E-1,-6.795000285E-2,9.870000839E0
1.179725682E0,3.019500077E-1,-6.599999964E-2,9.838950157E0
1.182226069E0,3.289500177E-1,-9.195000678E-2,9.808050156E0
1.184726605E0,3.289500177E-1,-1.000500023E-1,9.832050323E0
1.187226915E0,3.259500265E-1,-7.605000585E-2,9.870000839E0
1.189727297E0,3.049500287E-1,-5.700000376E-2,9.841050148E0
1.192227841E0,3.019500077E-1,-6.105000153E-2,9.834000587E0
1.194728228E0,2.760000229E-1,-6.599999964E-2,9.835950851E0
1.197228764E0,2.689500153E-1,-4.695000127E-2,9.820050240E0
1.199729151E0,2.500500083E-1,-1.605000161E-2,9.801000595E0
1.202229682E0,2.160000056E-1,-1.305000018E-2,9.835950851E0
1.204730069E0,2.190000117E-1,-3.000000119E-2,9.870000839E0
1.207230376E0,2.230500132E-1,-2.100000158E-2,9.847950935E0
1.209730990E0,2.230500132E-1,-3.495000303E-2,9.838950157E0
1.212231300E0,1.780500114E-1,-2.805000171E-2,9.841050148E0
1.214731913E0,1.660500020E-1,0.000000000E0,9.847950935E0
1.217232451E0,1.800000072E-1,1.950000064E-3,9.801000595E0
1.219732838E0,2.070000172E-1,-3.705000132E-2,9.826950073E0
1.222233374E0,1.759500057E-1,-2.805000171E-2,9.846000671E0
1.224733766E0,2.040000111E-1,-2.295000106E-2,9.856050491E0
1.227234074E0,2.020500153E-1,-9.000000544E-3,9.846000671E0
1.229734610E0,1.879500151E-1,-1.050000079E-3,9.859950066E0
1.232234997E0,1.780500114E-1,1.950000064E-3,9.865050316E0
1.234735518E0,1.849500090E-1,2.895000204E-2,9.817050934E0
1.237235905E0,1.729500145E-1,5.295000225E-2,9.814950943E0
1.239736446E0,1.519500017E-1,1.695000008E-2,9.862950325E0
1.242236833E0,1.800000072E-1,2.400000021E-2,9.868050575E0
1.244737141E0,1.879500151E-1,4.800000042E-2,9.835950851E0
1.247237677E0,1.609500051E-1,4.800000042E-2,9.832050323E0
1.249738064E0,9.900000691E-2,7.905000448E-2,9.850950241E0
1.252238600E0,1.009500027E-1,8.895000070E-2,9.841050148E0
1.254738987E0,1.090500057E-1,6.900000572E-2,9.808050156E0
1.257239513E0,1.319999993E-1,4.500000179E-2,9.841050148E0
1.259739900E0,1.180500090E-1,4.095000029E-2,9.856050491E0
1.262240437E0,1.129500046E-1,8.595000207E-2,9.858000755E0
1.264740823E0,1.009500027E-1,5.295000225E-2,9.841050148E0
1.267241360E0,9.195000678E-2,4.500000179E-2,9.865050316E0
1.269741669E0,1.090500057E-1,4.500000179E-2,9.835950851E0
1.272242283E0,1.129500046E-1,5.700000376E-2,9.817050934E0
1.274742592E0,1.249500066E-1,6.705000252E-2,9.829050064E0
1.277243216E0,1.319999993E-1,6.000000238E-2,9.859950066E0
1.279743525E0,1.660500020E-1,3.795000166E-2,9.880050659E0
1.282243910E0,1.780500114E-1,3.795000166E-2,9.832050323E0
1.284744447E0,1.279500127E-1,4.995000362E-2,9.841050148E0
1.287244818E0,1.039500013E-1,6.195000187E-2,9.844050407E0
1.289745355E0,1.369500011E-1,8.100000024E-2,9.829050064E0
1.292245741E0,1.319999993E-1,5.295000225E-2,9.832050323E0
1.294746278E0,1.420500129E-1,3.600000218E-2,9.850950241E0
1.297246664E0,1.300500035E-1,5.505000427E-2,9.862950325E0
1.299747196E0,9.900000691E-2,5.700000376E-2,9.847950935E0
1.302247506E0,7.995000482E-2,4.800000042E-2,9.846000671E0
1.304747888E0,1.200000048E-1,4.095000029E-2,9.859950066E0
1.307248427E0,1.110000089E-1,3.299999982E-2,9.826950073E0
1.309748813E0,1.159500033E-1,3.299999982E-2,9.817050934E0
1.312249341E0,1.009500027E-1,4.095000029E-2,9.835950851E0
1.314749727E0,1.399500072E-1,2.595000155E-2,9.862950325E0
1.317250264E0,1.729500145E-1,2.400000021E-2,9.850950241E0
1.319750650E0,1.590000093E-1,3.105000220E-2,9.846000671E0
1.322251177E0,1.060500070E-1,4.305000231E-2,9.841050148E0
1.324751564E0,1.249500066E-1,5.505000427E-2,9.835950851E0
1.327252100E0,1.420500129E-1,5.700000376E-2,9.834000587E0
1.329752487E0,1.879500151E-1,3.600000218E-2,9.850950241E0
1.332253048E0,1.920000017E-1,4.995000362E-2,9.856050491E0
1.334753435E0,1.969500035E-1,7.395000011E-2,9.865050316E0
1.337253742E0,1.540500075E-1,8.895000070E-2,9.846000671E0
1.339754279E0,1.350000054E-1,4.995000362E-2,9.841050148E0
1.342254665E0,1.780500114E-1,5.505000427E-2,9.856050491E0
1.344755202E0,2.089500129E-1,7.905000448E-2,9.822000504E0
1.347255589E0,1.969500035E-1,8.595000207E-2,9.825000763E0
1.349756125E0,1.639500111E-1,7.905000448E-2,9.865050316E0
1.352256507E0,1.879500151E-1,7.695000619E-2,9.865050316E0
1.354757043E0,1.990500093E-1,7.395000011E-2,9.850950241E0
1.357257430E0,2.040000111E-1,6.900000572E-2,9.834000587E0
1.359757737E0,1.900500059E-1,1.009500027E-1,9.832050323E0
1.362258260E0,1.729500145E-1,7.695000619E-2,9.826950073E0
1.364758647E0,1.729500145E-1,6.900000572E-2,9.825000763E0
1.367259183E0,2.140500098E-1,5.505000427E-2,9.862950325E0
1.369759570E0,2.620500028E-1,7.395000011E-2,9.874950409E0
1.372260106E0,2.310000062E-1,7.395000011E-2,9.835950851E0
1.374760498E0,1.990500093E-1,7.905000448E-2,9.844050407E0
1.377261034E0,1.900500059E-1,6.900000572E-2,9.846000671E0
1.379761421E0,2.280000150E-1,5.700000376E-2,9.834000587E0
1.382261957E0,2.860500216E-1,7.200000435E-2,9.826950073E0
1.384762344E0,2.400000095E-1,7.905000448E-2,9.846000671E0
1.387262880E0,2.350500077E-1,8.895000070E-2,9.856050491E0
1.389763267E0,2.590500116E-1,8.595000207E-2,9.868050575E0
1.392263803E0,2.670000196E-1,7.395000011E-2,9.835950851E0
1.394764180E0,2.569500208E-1,6.705000252E-2,9.841050148E0
1.397264488E0,2.449500114E-1,8.595000207E-2,9.838950157E0
1.399765024E0,2.449500114E-1,9.300000221E-2,9.832050323E0
1.402265411E0,2.710500062E-1,6.495000422E-2,9.834000587E0
1.404765937E0,2.830500007E-1,6.705000252E-2,9.868050575E0
1.407266324E0,3.340500295E-1,6.900000572E-2,9.847950935E0
1.409766860E0,3.000000119E-1,6.195000187E-2,9.825000763E0
1.412267247E0,2.639999986E-1,4.305000231E-2,9.835950851E0
1.414767783E0,2.830500007E-1,4.800000042E-2,9.847950935E0
1.417268151E0,3.139500022E-1,4.305000231E-2,9.822000504E0
1.419768459E0,3.409500122E-1,4.500000179E-2,9.826950073E0
1.422268995E0,3.289500177E-1,2.595000155E-2,9.850950241E0
1.424769382E0,3.139500022E-1,5.700000376E-2,9.856050491E0
1.427269928E0,3.379500210E-1,4.305000231E-2,9.846000671E0
1.429770315E0,3.430500031E-1,4.095000029E-2,9.834000587E0
1.432270851E0,3.529500067E-1,4.500000179E-2,9.832050323E0
1.434771238E0,3.310500085E-1,6.495000422E-2,9.826950073E0
1.437271789E0,3.070500195E-1,4.800000042E-2,9.834000587E0
1.439772175E0,3.139500022E-1,4.995000362E-2,9.858000755E0
1.442272712E0,3.340500295E-1,6.195000187E-2,9.871950150E0
1.444773098E0,3.580500185E-1,7.200000435E-2,9.846000671E0
1.447273635E0,3.310500085E-1,7.695000619E-2,9.814950943E0
1.449774021E0,2.830500007E-1,6.900000572E-2,9.838950157E0
1.452274558E0,2.860500216E-1,6.705000252E-2,9.847950935E0
1.454774868E0,3.340500295E-1,6.495000422E-2,9.834000587E0
1.457275250E0,3.259500265E-1,6.705000252E-2,9.844050407E0
1.459775804E0,3.070500195E-1,9.600000083E-2,9.858000755E0
1.462276190E0,2.929500043E-1,1.080000028E-1,9.853050232E0
1.464776727E0,2.779500186E-1,9.795000404E-2,9.829050064E0
1.467277113E0,2.689500153E-1,7.695000619E-2,9.829050064E0
1.469777645E0,2.670000196E-1,1.150500029E-1,9.844050407E0
1.472278031E0,2.760000229E-1,1.240500063E-1,9.829050064E0
1.474778339E0,2.380500138E-1,1.099500060E-1,9.841050148E0
1.477278952E0,2.140500098E-1,1.240500063E-1,9.846000671E0
1.479779252E0,2.280000150E-1,1.219500080E-1,9.862950325E0
1.482279866E0,2.230500132E-1,1.200000048E-1,9.841050148E0
1.484780175E0,2.089500129E-1,1.030500084E-1,9.841050148E0
1.487280712E0,1.800000072E-1,1.120500043E-1,9.850950241E0
1.489781113E0,1.639500111E-1,9.300000221E-2,9.865050316E0
1.492281650E0,1.950000077E-1,7.905000448E-2,9.847950935E0
1.494782036E0,2.020500153E-1,8.595000207E-2,9.856050491E0
1.497282573E0,1.900500059E-1,1.050000042E-1,9.877050400E0
1.499782945E0,1.729500145E-1,9.105000645E-2,9.847950935E0
1.502283481E0,1.729500145E-1,8.595000207E-2,9.826950073E0
1.504783868E0,1.759500057E-1,7.200000435E-2,9.834000587E0
1.507284404E0,1.780500114E-1,9.300000221E-2,9.841050148E0
1.509784781E0,1.800000072E-1,1.009500027E-1,9.835950851E0
1.512285088E0,1.680000126E-1,1.009500027E-1,9.834000587E0
1.514785625E0,1.420500129E-1,1.030500084E-1,9.862950325E0
1.517286012E0,1.440000087E-1,9.600000083E-2,9.846000671E0
1.519786548E0,1.420500129E-1,1.219500080E-1,9.820050240E0
1.522286935E0,1.200000048E-1,1.099500060E-1,9.853050232E0
1.524787471E0,7.695000619E-2,1.030500084E-1,9.859950066E0
1.527287858E0,8.205000311E-2,9.600000083E-2,9.850950241E0
1.529788418E0,8.700000495E-2,1.050000042E-1,9.865050316E0
1.532288728E0,8.895000070E-2,1.170000061E-1,9.856050491E0
1.534789341E0,9.705000371E-2,1.319999993E-1,9.862950325E0
1.537289651E0,8.700000495E-2,1.120500043E-1,9.850950241E0
1.539790264E0,5.805000290E-2,9.600000083E-2,9.834000587E0
1.542290550E0,5.295000225E-2,8.400000632E-2,9.841050148E0
1.544791163E0,8.700000495E-2,9.795000404E-2,9.859950066E0
1.547291473E0,7.995000482E-2,8.100000024E-2,9.841050148E0
1.549792087E0,6.495000422E-2,1.200000048E-1,9.868050575E0
1.552292396E0,5.805000290E-2,8.400000632E-2,9.862950325E0
1.554792781E0,7.995000482E-2,7.200000435E-2,9.847950935E0
1.557293317E0,7.304999977E-2,9.105000645E-2,9.832050323E0
1.559793704E0,5.595000088E-2,7.905000448E-2,9.820050240E0
1.562294245E0,4.095000029E-2,7.395000011E-2,9.829050064E0
1.564794632E0,4.605000094E-2,5.295000225E-2,9.856050491E0
1.567295168E0,4.905000329E-2,6.705000252E-2,9.870000839E0
1.569795478E0,3.705000132E-2,7.200000435E-2,9.859950066E0
1.572295871E0,6.795000285E-2,6.705000252E-2,9.856050491E0
1.574796409E0,3.900000080E-2,1.905000024E-2,9.841050148E0
1.577296796E0,3.195000067E-2,1.005000062E-2,9.835950851E0
1.579797332E0,1.800000109E-2,4.950000439E-3,9.853050232E0
1.582297723E0,5.595000088E-2,1.950000064E-3,9.846000671E0
1.584798259E0,6.795000285E-2,1.950000064E-3,9.844050407E0
1.587298646E0,8.895000070E-2,7.050000131E-3,9.853050232E0
1.589799183E0,1.039500013E-1,-3.299999982E-2,9.871950150E0
1.592299560E0,9.195000678E-2,-5.400000140E-2,9.834000587E0
1.594799868E0,1.159500033E-1,-5.895000324E-2,9.826950073E0
1.597300481E0,1.180500090E-1,-1.800000109E-2,9.846000671E0
1.599800791E0,1.350000054E-1,-3.299999982E-2,9.850950241E0
1.602301404E0,1.300500035E-1,-5.205000192E-2,9.868050575E0
1.604801714E0,1.609500051E-1,-4.905000329E-2,9.859950066E0
1.607302327E0,1.710000038E-1,-2.505000122E-2,9.868050575E0
1.609802637E0,1.540500075E-1,-3.495000303E-2,9.832050323E0
1.612303174E0,1.519500017E-1,-3.705000132E-2,9.829050064E0
1.614803565E0,1.399500072E-1,-4.005000368E-2,9.832050323E0
1.617304102E0,1.560000032E-1,-3.705000132E-2,9.844050407E0
1.619804488E0,1.300500035E-1,-1.800000109E-2,9.844050407E0
1.622305025E0,1.729500145E-1,1.695000008E-2,9.850950241E0
1.624805420E0,1.609500051E-1,2.895000204E-2,9.862950325E0
1.627305957E0,1.519500017E-1,1.950000064E-3,9.850950241E0
1.629806343E0,1.420500129E-1,-1.800000109E-2,9.826950073E0
1.632306651E0,1.399500072E-1,-2.100000158E-2,9.834000587E0
1.634807188E0,1.469999999E-1,-1.050000079E-3,9.834000587E0
1.637307560E0,1.519500017E-1,-1.050000079E-3,9.862950325E0
1.639808097E0,1.710000038E-1,-1.095000096E-2,9.871950150E0
1.642308483E0,1.759500057E-1,-6.000000052E-3,9.865050316E0
1.644809020E0,2.140500098E-1,-1.305000018E-2,9.847950935E0
1.647309415E0,2.070000172E-1,-4.200000316E-2,9.825000763E0
1.649809952E0,1.879500151E-1,-1.800000109E-2,9.835950851E0
1.652310339E0,1.759500057E-1,-2.295000106E-2,9.838950157E0
1.654810875E0,1.920000017E-1,-9.000000544E-3,9.862950325E0
1.657311171E0,1.800000072E-1,-4.050000105E-3,9.850950241E0
1.659811784E0,1.969500035E-1,7.050000131E-3,9.841050148E0
1.662312094E0,1.920000017E-1,1.695000008E-2,9.844050407E0
1.664812478E0,1.729500145E-1,-1.050000079E-3,9.844050407E0
1.667313015E0,1.279500127E-1,1.005000062E-2,9.829050064E0
1.669813401E0,1.319999993E-1,3.299999982E-2,9.834000587E0
1.672313938E0,1.300500035E-1,4.305000231E-2,9.822000504E0
1.674814325E0,1.440000087E-1,3.795000166E-2,9.856050491E0
1.677314861E0,1.319999993E-1,3.795000166E-2,9.868050575E0
1.679815248E0,1.279500127E-1,3.105000220E-2,9.862950325E0
1.682315784E0,1.469999999E-1,2.895000204E-2,9.844050407E0
1.684816171E0,1.399500072E-1,1.905000024E-2,9.835950851E0
1.687316707E0,1.420500129E-1,2.205000073E-2,9.825000763E0
1.689817017E0,1.639500111E-1,1.005000062E-2,9.841050148E0
1.692317400E0,1.759500057E-1,1.200000010E-2,9.865050316E0
1.694817938E0,1.849500090E-1,2.595000155E-2,9.870000839E0
1.697318325E0,2.260500044E-1,4.095000029E-2,9.850950241E0
1.699818846E0,2.160000056E-1,3.105000220E-2,9.858000755E0
1.702319233E0,2.040000111E-1,1.695000008E-2,9.846000671E0
1.704819769E0,1.780500114E-1,7.050000131E-3,9.829050064E0
1.707320156E0,1.900500059E-1,4.500000179E-2,9.832050323E0
1.709820707E0,1.969500035E-1,5.700000376E-2,9.846000671E0
1.712321094E0,1.660500020E-1,6.000000238E-2,9.856050491E0
1.714821630E0,1.590000093E-1,6.900000572E-2,9.853050232E0
1.717322017E0,1.639500111E-1,5.295000225E-2,9.841050148E0
1.719822334E0,1.469999999E-1,6.900000572E-2,9.832050323E0
1.722322947E0,1.300500035E-1,7.200000435E-2,9.834000587E0
1.724823257E0,1.399500072E-1,7.200000435E-2,9.822000504E0
1.727323793E0,1.440000087E-1,6.705000252E-2,9.844050407E0
1.729824166E0,1.519500017E-1,4.095000029E-2,9.859950066E0
1.732324702E0,1.759500057E-1,4.500000179E-2,9.850950241E0
1.734825089E0,1.849500090E-1,1.695000008E-2,9.847950935E0
1.737325625E0,1.990500093E-1,4.950000439E-3,9.834000587E0
1.739826012E0,1.660500020E-1,-2.805000171E-2,9.826950073E0
1.742326544E0,1.950000077E-1,-1.605000161E-2,9.826950073E0
1.744826930E0,2.230500132E-1,-6.000000052E-3,9.844050407E0
1.747327467E0,2.430000156E-1,-3.705000132E-2,9.865050316E0
1.749827776E0,2.350500077E-1,-3.299999982E-2,9.874950409E0
1.752328178E0,1.950000077E-1,-4.005000368E-2,9.859950066E0
1.754828716E0,2.089500129E-1,-4.005000368E-2,9.853050232E0
1.757329103E0,1.849500090E-1,-3.705000132E-2,9.826950073E0
1.759829639E0,1.780500114E-1,-2.805000171E-2,9.832050323E0
1.762330016E0,1.830000132E-1,-1.305000018E-2,9.834000587E0
1.764830553E0,1.660500020E-1,-2.100000158E-2,9.874950409E0
1.767330939E0,1.639500111E-1,-2.295000106E-2,9.870000839E0
1.769831476E0,1.800000072E-1,-3.000000119E-2,9.844050407E0
1.772331858E0,1.800000072E-1,-4.500000179E-2,9.822000504E0
1.774832395E0,1.660500020E-1,-6.405000389E-2,9.813000679E0
1.777332781E0,1.399500072E-1,-4.695000127E-2,9.847950935E0
1.779833318E0,1.729500145E-1,-4.005000368E-2,9.850950241E0
1.782333718E0,1.900500059E-1,-5.205000192E-2,9.850950241E0
1.784834255E0,2.160000056E-1,-4.005000368E-2,9.859950066E0
1.787334565E0,2.140500098E-1,-8.805000782E-2,9.841050148E0
1.789834947E0,1.990500093E-1,-9.195000678E-2,9.829050064E0
1.792335500E0,1.950000077E-1,-1.090500057E-1,9.841050148E0
1.794835886E0,1.780500114E-1,-7.605000585E-2,9.841050148E0
1.797336423E0,1.950000077E-1,-6.405000389E-2,9.829050064E0
1.799836809E0,2.089500129E-1,-5.700000376E-2,9.844050407E0
1.802337361E0,2.020500153E-1,-5.700000376E-2,9.871950150E0
1.804837747E0,1.900500059E-1,-5.700000376E-2,9.868050575E0
1.807338055E0,1.729500145E-1,-4.200000316E-2,9.835950851E0
1.809838592E0,1.729500145E-1,-4.695000127E-2,9.826950073E0
1.812338987E0,1.489500105E-1,-5.700000376E-2,9.832050323E0
1.814839524E0,1.300500035E-1,-3.299999982E-2,9.841050148E0
1.817339910E0,1.369500011E-1,-1.050000079E-3,9.853050232E0
1.819840447E0,1.540500075E-1,1.950000064E-3,9.870000839E0
1.822340833E0,1.489500105E-1,-1.050000079E-3,9.846000671E0
1.824841385E0,1.200000048E-1,-1.305000018E-2,9.822000504E0
1.827341772E0,1.159500033E-1,-1.800000109E-2,9.829050064E0
1.829842308E0,1.249500066E-1,-1.605000161E-2,9.841050148E0
1.832342695E0,1.300500035E-1,-1.095000096E-2,9.835950851E0
1.834843226E0,1.710000038E-1,0.000000000E0,9.844050407E0
1.837343613E0,1.759500057E-1,-1.605000161E-2,9.871950150E0
1.839844149E0,1.519500017E-1,-6.000000052E-3,9.865050316E0
1.842344536E0,1.660500020E-1,-1.605000161E-2,9.859950066E0
1.844845072E0,1.759500057E-1,-1.095000096E-2,9.835950851E0
1.847345391E0,1.900500059E-1,0.000000000E0,9.829050064E0
1.849845774E0,1.780500114E-1,0.000000000E0,9.829050064E0
1.852346312E0,1.489500105E-1,2.895000204E-2,9.847950935E0
1.854846699E0,1.759500057E-1,5.295000225E-2,9.862950325E0
1.857347235E0,1.990500093E-1,6.495000422E-2,9.871950150E0
1.859847618E0,1.900500059E-1,4.500000179E-2,9.856050491E0
1.862348154E0,1.489500105E-1,3.600000218E-2,9.838950157E0
1.864848464E0,1.369500011E-1,5.295000225E-2,9.826950073E0
1.867348847E0,1.230000034E-1,8.895000070E-2,9.856050491E0
1.869849385E0,1.729500145E-1,1.099500060E-1,9.838950157E0
1.872349772E0,2.070000172E-1,1.009500027E-1,9.850950241E0
1.874850308E0,1.879500151E-1,9.300000221E-2,9.850950241E0
1.877350695E0,1.609500051E-1,7.395000011E-2,9.844050407E0
1.879851231E0,1.489500105E-1,8.400000632E-2,9.822000504E0
1.882351618E0,1.729500145E-1,1.009500027E-1,9.834000587E0
1.884852154E0,1.849500090E-1,9.105000645E-2,9.813000679E0
1.887352541E0,2.110500038E-1,7.695000619E-2,9.820050240E0
1.889853077E0,2.110500038E-1,9.105000645E-2,9.846000671E0
1.892353464E0,2.089500129E-1,8.400000632E-2,9.865050316E0
1.894854000E0,2.350500077E-1,9.300000221E-2,9.874950409E0
1.897354387E0,2.110500038E-1,7.695000619E-2,9.832050323E0
1.899854933E0,2.020500153E-1,5.700000376E-2,9.826950073E0
1.902355319E0,1.830000132E-1,4.500000179E-2,9.853050232E0
1.904855627E0,2.040000111E-1,7.395000011E-2,9.838950157E0
1.907356163E0,2.230500132E-1,9.600000083E-2,9.846000671E0
1.909856550E0,2.230500132E-1,7.695000619E-2,9.859950066E0
1.912357100E0,2.070000172E-1,4.500000179E-2,9.858000755E0
1.914857487E0,1.990500093E-1,4.995000362E-2,9.838950157E0
1.917358024E0,1.950000077E-1,4.305000231E-2,9.834000587E0
1.919858410E0,1.920000017E-1,4.800000042E-2,9.825000763E0
1.922358924E0,2.140500098E-1,6.195000187E-2,9.841050148E0
1.924859310E0,2.020500153E-1,5.700000376E-2,9.844050407E0
1.927359618E0,2.350500077E-1,4.500000179E-2,9.858000755E0
1.929860231E0,2.500500083E-1,1.200000010E-2,9.874950409E0
1.932360554E0,2.569500208E-1,1.695000008E-2,9.826950073E0
1.934861167E0,2.500500083E-1,-1.605000161E-2,9.817050934E0
1.937361477E0,2.430000156E-1,1.950000064E-3,9.838950157E0
1.939862091E0,2.470500171E-1,-1.305000018E-2,9.846000671E0
1.942362377E0,2.740500271E-1,4.950000439E-3,9.846000671E0
1.944862914E0,2.980500162E-1,-4.050000105E-3,9.829050064E0
1.947363300E0,3.100500107E-1,-1.095000096E-2,9.858000755E0
1.949863837E0,2.689500153E-1,-1.095000096E-2,9.844050407E0
1.952364223E0,2.310000062E-1,-9.000000544E-3,9.826950073E0
1.954864746E0,2.400000095E-1,7.050000131E-3,9.825000763E0
1.957365132E0,2.500500083E-1,-1.050000079E-3,9.846000671E0
1.959865669E0,2.740500271E-1,1.200000010E-2,9.826950073E0
1.962366056E0,2.620500028E-1,3.795000166E-2,9.847950935E0
1.964866339E0,2.230500132E-1,2.895000204E-2,9.865050316E0
1.967366876E0,2.329500169E-1,3.299999982E-2,9.859950066E0
1.969867262E0,2.209500074E-1,3.795000166E-2,9.817050934E0
1.972367799E0,2.310000062E-1,3.105000220E-2,9.813000679E0
1.974868185E0,2.110500038E-1,4.305000231E-2,9.838950157E0
1.977368722E0,2.190000117E-1,5.505000427E-2,9.841050148E0
1.979869109E0,2.209500074E-1,8.895000070E-2,9.844050407E0
1.982369645E0,2.260500044E-1,6.900000572E-2,9.862950325E0
1.984870032E0,2.329500169E-1,4.995000362E-2,9.858000755E0
1.987370563E0,1.920000017E-1,4.305000231E-2,9.844050407E0
1.989870950E0,1.710000038E-1,5.295000225E-2,9.805050850E0
1.992371486E0,1.849500090E-1,6.900000572E-2,9.829050064E0
1.994871796E0,1.900500059E-1,8.595000207E-2,9.856050491E0
1.997372395E0,2.260500044E-1,1.050000042E-1,9.846000671E0
1.999872705E0,2.209500074E-1,7.395000011E-2,9.847950935E0
2.002373090E0,1.950000077E-1,5.700000376E-2,9.882000923E0
2.004873626E0,1.759500057E-1,8.400000632E-2,9.862950325E0
2.007374013E0,2.070000172E-1,9.600000083E-2,9.817050934E0
2.009874553E0,2.110500038E-1,9.300000221E-2,9.826950073E0
2.012374940E0,2.020500153E-1,7.695000619E-2,9.847950935E0
2.014875476E0,2.160000056E-1,1.030500084E-1,9.841050148E0
2.017375863E0,2.310000062E-1,9.795000404E-2,9.844050407E0
2.019876399E0,2.380500138E-1,9.795000404E-2,9.856050491E0
2.022376714E0,2.140500098E-1,8.895000070E-2,9.832050323E0
2.024877097E0,1.830000132E-1,1.099500060E-1,9.817050934E0
2.027377635E0,1.800000072E-1,1.120500043E-1,9.817050934E0
2.029878022E0,2.020500153E-1,1.170000061E-1,9.841050148E0
2.032378563E0,1.950000077E-1,1.440000087E-1,9.853050232E0
2.034878950E0,1.879500151E-1,1.339500099E-1,9.835950851E0
2.037379486E0,1.540500075E-1,1.170000061E-1,9.844050407E0
2.039879873E0,1.180500090E-1,1.030500084E-1,9.862950325E0
2.042380414E0,1.369500011E-1,1.099500060E-1,9.834000587E0
2.044880801E0,1.300500035E-1,1.290000081E-1,9.826950073E0
2.047381109E0,1.159500033E-1,1.200000048E-1,9.835950851E0
2.049881722E0,9.705000371E-2,1.410000026E-1,9.871950150E0
2.052382027E0,7.500000298E-2,1.680000126E-1,9.859950066E0
2.054882640E0,8.205000311E-2,1.650000066E-1,9.858000755E0
2.057382950E0,7.995000482E-2,1.750500053E-1,9.874950409E0
2.059883563E0,6.795000285E-2,1.440000087E-1,9.858000755E0
2.062383873E0,5.805000290E-2,1.750500053E-1,9.822000504E0
2.064884399E0,2.505000122E-2,1.909500062E-1,9.846000671E0
2.067384786E0,4.395000264E-2,1.870500147E-1,9.838950157E0
2.069885323E0,5.595000088E-2,2.200500071E-1,9.841050148E0
2.072385709E0,5.805000290E-2,2.149500102E-1,9.846000671E0
2.074886260E0,2.700000070E-2,1.770000011E-1,9.862950325E0
2.077386646E0,7.950000465E-3,1.990500093E-1,9.865050316E0
2.079887183E0,3.195000067E-2,2.419500053E-1,9.838950157E0
2.082387569E0,4.095000029E-2,2.350500077E-1,9.834000587E0
2.084887877E0,1.005000062E-2,2.149500102E-1,9.853050232E0
2.087388418E0,3.000000026E-3,1.960500032E-1,9.847950935E0
2.089888805E0,2.505000122E-2,1.990500093E-1,9.858000755E0
2.092389342E0,4.395000264E-2,2.059500068E-1,9.865050316E0
2.094889728E0,3.195000067E-2,1.990500093E-1,9.850950241E0
2.097390285E0,5.595000088E-2,2.080500126E-1,9.850950241E0
2.099890671E0,5.805000290E-2,1.960500032E-1,9.820050240E0
2.102391208E0,5.595000088E-2,1.630500108E-1,9.858000755E0
2.104891517E0,7.695000619E-2,1.819500029E-1,9.865050316E0
2.107392131E0,1.129500046E-1,1.909500062E-1,9.868050575E0
2.109892436E0,9.900000691E-2,1.699500084E-1,9.847950935E0
2.112393049E0,9.900000691E-2,1.480500102E-1,9.865050316E0
2.114893359E0,1.159500033E-1,1.459500045E-1,9.844050407E0
2.117393972E0,1.129500046E-1,1.699500084E-1,9.829050064E0
2.119894296E0,1.540500075E-1,1.560000032E-1,9.844050407E0
2.122394909E0,1.350000054E-1,1.600500047E-1,9.853050232E0
2.124895219E0,1.279500127E-1,1.390500069E-1,9.862950325E0
2.127395603E0,1.350000054E-1,1.410000026E-1,9.862950325E0
2.129896140E0,1.420500129E-1,1.240500063E-1,9.859950066E0
2.132396527E0,1.759500057E-1,1.080000028E-1,9.835950851E0
2.134897063E0,1.969500035E-1,1.440000087E-1,9.832050323E0
2.137397450E0,1.900500059E-1,1.219500080E-1,9.834000587E0
2.139897991E0,1.920000017E-1,1.170000061E-1,9.853050232E0
2.142398378E0,2.190000117E-1,1.030500084E-1,9.847950935E0
2.144898685E0,2.620500028E-1,1.170000061E-1,9.834000587E0
2.147399222E0,2.760000229E-1,9.300000221E-2,9.834000587E0
2.149899608E0,2.569500208E-1,9.105000645E-2,9.859950066E0
2.152400159E0,2.639999986E-1,1.009500027E-1,9.832050323E0
2.154900546E0,2.860500216E-1,9.795000404E-2,9.826950073E0
2.157401082E0,3.019500077E-1,1.009500027E-1,9.841050148E0
2.159901469E0,3.289500177E-1,9.300000221E-2,9.853050232E0
2.162402005E0,3.100500107E-1,8.100000024E-2,9.846000671E0
2.164902397E0,3.070500195E-1,7.905000448E-2,9.856050491E0
2.167402933E0,3.220500052E-1,7.905000448E-2,9.853050232E0
2.169903320E0,3.259500265E-1,8.100000024E-2,9.813000679E0
2.172403856E0,3.310500085E-1,8.595000207E-2,9.817050934E0
2.174904243E0,3.070500195E-1,8.595000207E-2,9.838950157E0
2.177404551E0,2.880000174E-1,6.900000572E-2,9.856050491E0
2.179905164E0,2.689500153E-1,8.895000070E-2,9.850950241E0
2.182405474E0,2.760000229E-1,7.905000448E-2,9.846000671E0
2.184906010E0,2.860500216E-1,6.705000252E-2,9.844050407E0
2.187406401E0,2.830500007E-1,7.695000619E-2,9.838950157E0
2.189906937E0,2.670000196E-1,9.300000221E-2,9.822000504E0
2.192407324E0,2.590500116E-1,9.795000404E-2,9.835950851E0
2.194907860E0,2.760000229E-1,9.600000083E-2,9.846000671E0
2.197408243E0,2.689500153E-1,6.705000252E-2,9.859950066E0
2.199908779E0,2.779500186E-1,5.505000427E-2,9.868050575E0
2.202409166E0,2.809500098E-1,4.800000042E-2,9.835950851E0
2.204909474E0,2.950500250E-1,6.495000422E-2,9.841050148E0
2.207410019E0,3.139500022E-1,8.595000207E-2,9.822000504E0
2.209910406E0,3.000000119E-1,7.695000619E-2,9.834000587E0
2.212410942E0,2.880000174E-1,5.505000427E-2,9.853050232E0
2.214911329E0,2.899500132E-1,5.295000225E-2,9.847950935E0
2.217411875E0,2.899500132E-1,3.795000166E-2,9.832050323E0
2.219912262E0,2.760000229E-1,5.700000376E-2,9.838950157E0
2.222412798E0,2.779500186E-1,8.100000024E-2,9.834000587E0
2.224913185E0,2.350500077E-1,7.395000011E-2,9.834000587E0
2.227413727E0,2.190000117E-1,1.030500084E-1,9.825000763E0
2.229914113E0,1.950000077E-1,9.105000645E-2,9.835950851E0
2.232414650E0,2.020500153E-1,8.100000024E-2,9.841050148E0
2.234915036E0,1.849500090E-1,7.905000448E-2,9.841050148E0
2.237415573E0,1.609500051E-1,5.505000427E-2,9.834000587E0
2.239915959E0,1.680000126E-1,6.195000187E-2,9.846000671E0
2.242416496E0,1.639500111E-1,8.100000024E-2,9.841050148E0
2.244916882E0,1.540500075E-1,1.050000042E-1,9.846000671E0
2.247417190E0,1.519500017E-1,6.900000572E-2,9.834000587E0
2.249917717E0,1.519500017E-1,5.700000376E-2,9.856050491E0
2.252418103E0,1.540500075E-1,6.495000422E-2,9.856050491E0
2.254918640E0,1.440000087E-1,6.495000422E-2,9.846000671E0
2.257419026E0,1.800000072E-1,6.195000187E-2,9.858000755E0
2.259919568E0,1.759500057E-1,6.195000187E-2,9.835950851E0
2.262419954E0,1.969500035E-1,7.200000435E-2,9.835950851E0
2.264920491E0,1.729500145E-1,6.195000187E-2,9.841050148E0
2.267420801E0,2.040000111E-1,4.305000231E-2,9.859950066E0
2.269921163E0,1.990500093E-1,2.895000204E-2,9.856050491E0
2.272421702E0,2.160000056E-1,7.050000131E-3,9.859950066E0
2.274922088E0,2.140500098E-1,1.395000052E-2,9.847950935E0
2.277422625E0,2.089500129E-1,3.299999982E-2,9.844050407E0
2.279923016E0,1.969500035E-1,3.299999982E-2,9.834000587E0
2.282423553E0,1.990500093E-1,3.600000218E-2,9.832050323E0
2.284923939E0,2.260500044E-1,1.950000064E-3,9.850950241E0
2.287424476E0,2.430000156E-1,4.950000439E-3,9.859950066E0
2.289924863E0,2.550000250E-1,4.950000439E-3,9.858000755E0
2.292425385E0,2.569500208E-1,1.395000052E-2,9.834000587E0
2.294925772E0,2.880000174E-1,-6.000000052E-3,9.838950157E0
2.297426308E0,2.929500043E-1,-9.000000544E-3,9.813000679E0
2.299926695E0,2.980500162E-1,1.200000010E-2,9.834000587E0
2.302427231E0,2.980500162E-1,-2.295000106E-2,9.825000763E0
2.304927618E0,3.120000064E-1,-2.805000171E-2,9.835950851E0
2.307428154E0,3.139500022E-1,-3.299999982E-2,9.844050407E0
2.309928464E0,3.120000064E-1,-4.200000316E-2,9.853050232E0
2.312428847E0,3.100500107E-1,-5.400000140E-2,9.856050491E0
2.314929375E0,2.830500007E-1,-2.805000171E-2,9.853050232E0
2.317429762E0,2.550000250E-1,-3.299999982E-2,9.814950943E0
2.319930298E0,2.310000062E-1,-5.205000192E-2,9.841050148E0
2.322430685E0,2.160000056E-1,-6.405000389E-2,9.853050232E0
2.324931207E0,2.070000172E-1,-6.405000389E-2,9.859950066E0
2.327431594E0,1.879500151E-1,-4.905000329E-2,9.856050491E0
2.329931902E0,1.729500145E-1,-5.895000324E-2,9.847950935E0
2.332432438E0,1.440000087E-1,-3.299999982E-2,9.858000755E0
2.334932825E0,1.230000034E-1,-2.100000158E-2,9.832050323E0
2.337433361E0,9.705000371E-2,-3.000000119E-2,9.826950073E0
2.339933748E0,1.279500127E-1,-2.505000122E-2,9.862950325E0
2.342434284E0,1.249500066E-1,-3.000000119E-2,9.853050232E0
2.344934671E0,1.279500127E-1,-2.295000106E-2,9.850950241E0
2.347435207E0,1.319999993E-1,-4.500000179E-2,9.865050316E0
2.349935594E0,1.399500072E-1,-3.495000303E-2,9.846000671E0
2.352436130E0,1.159500033E-1,-2.805000171E-2,9.829050064E0
2.354936496E0,1.129500046E-1,-3.299999982E-2,9.829050064E0
2.357437033E0,1.350000054E-1,-4.200000316E-2,9.846000671E0
2.359937419E0,1.639500111E-1,-4.695000127E-2,9.862950325E0
2.362437956E0,1.849500090E-1,-3.299999982E-2,9.858000755E0
2.364938314E0,1.830000132E-1,-2.295000106E-2,9.847950935E0
2.367438851E0,1.540500075E-1,-4.005000368E-2,9.846000671E0
2.369939237E0,1.399500072E-1,-4.695000127E-2,9.841050148E0
2.372439545E0,1.469999999E-1,-5.700000376E-2,9.829050064E0
2.374940081E0,1.759500057E-1,-3.495000303E-2,9.844050407E0
2.377440467E0,2.089500129E-1,-6.105000153E-2,9.871950150E0
2.379941004E0,1.950000077E-1,-4.200000316E-2,9.846000671E0
2.382441390E0,1.920000017E-1,-4.905000329E-2,9.862950325E0
2.384941927E0,1.830000132E-1,-4.500000179E-2,9.850950241E0
2.387442314E0,1.879500151E-1,-4.695000127E-2,9.826950073E0
2.389942851E0,1.830000132E-1,-1.095000096E-2,9.822000504E0
2.392443160E0,1.900500059E-1,-2.805000171E-2,9.826950073E0
2.394943543E0,2.110500038E-1,-4.905000329E-2,9.829050064E0
2.397444086E0,2.350500077E-1,-5.205000192E-2,9.850950241E0
2.399944472E0,2.310000062E-1,-4.500000179E-2,9.846000671E0
2.402445009E0,2.209500074E-1,-1.095000096E-2,9.838950157E0
2.404945395E0,2.160000056E-1,-3.000000119E-2,9.841050148E0
2.407445942E0,1.950000077E-1,-2.505000122E-2,9.814950943E0
2.409946328E0,1.900500059E-1,-1.605000161E-2,9.834000587E0
2.412446865E0,2.430000156E-1,-5.400000140E-2,9.858000755E0
2.414947251E0,2.310000062E-1,-3.000000119E-2,9.862950325E0
2.417447773E0,2.380500138E-1,-1.095000096E-2,9.846000671E0
2.419948160E0,2.089500129E-1,-2.295000106E-2,9.850950241E0
2.422448696E0,2.040000111E-1,-2.805000171E-2,9.841050148E0
2.424949083E0,1.830000132E-1,-2.100000158E-2,9.829050064E0
2.427449619E0,1.780500114E-1,-1.095000096E-2,9.844050407E0
2.429949987E0,1.950000077E-1,-9.000000544E-3,9.841050148E0
2.432450523E0,2.350500077E-1,-3.000000119E-2,9.868050575E0
2.434950833E0,2.329500169E-1,-1.305000018E-2,9.847950935E0
2.437451215E0,2.280000150E-1,4.950000439E-3,9.826950073E0
2.439951773E0,2.140500098E-1,-1.305000018E-2,9.832050323E0
2.442452160E0,2.140500098E-1,1.005000062E-2,9.822000504E0
2.444952696E0,2.160000056E-1,1.005000062E-2,9.829050064E0
2.447453083E0,2.329500169E-1,-1.800000109E-2,9.822000504E0
2.449953639E0,2.670000196E-1,0.000000000E0,9.846000671E0
2.452454026E0,2.520000041E-1,3.105000220E-2,9.865050316E0
2.454954333E0,2.280000150E-1,1.200000010E-2,9.841050148E0
2.457454870E0,2.140500098E-1,7.050000131E-3,9.829050064E0
2.459955281E0,1.990500093E-1,-4.050000105E-3,9.817050934E0
2.462455817E0,1.879500151E-1,1.695000008E-2,9.846000671E0
2.464956204E0,1.950000077E-1,-1.050000079E-3,9.838950157E0
2.467456740E0,2.070000172E-1,-2.805000171E-2,9.856050491E0
2.469957127E0,2.190000117E-1,-2.805000171E-2,9.871950150E0
2.472457662E0,1.900500059E-1,-1.800000109E-2,9.856050491E0
2.474958049E0,1.800000072E-1,1.005000062E-2,9.846000671E0
2.477458585E0,1.489500105E-1,-1.305000018E-2,9.832050323E0
2.479958972E0,1.300500035E-1,1.695000008E-2,9.825000763E0
2.482459523E0,1.469999999E-1,4.950000439E-3,9.838950157E0
2.484959910E0,1.729500145E-1,-1.800000109E-2,9.856050491E0
2.487460446E0,1.900500059E-1,-1.305000018E-2,9.847950935E0
2.489960833E0,1.399500072E-1,0.000000000E0,9.865050316E0
2.492461380E0,1.420500129E-1,1.905000024E-2,9.853050232E0
2.494961766E0,1.369500011E-1,1.905000024E-2,9.825000763E0
2.497462303E0,1.440000087E-1,1.395000052E-2,9.829050064E0
2.499962612E0,1.469999999E-1,2.205000073E-2,9.832050323E0
2.502463009E0,1.660500020E-1,3.105000220E-2,9.850950241E0
2.504963547E0,1.879500151E-1,1.905000024E-2,9.858000755E0
2.507463934E0,1.780500114E-1,3.105000220E-2,9.865050316E0
2.509964470E0,1.729500145E-1,2.595000155E-2,9.841050148E0
2.512464857E0,1.590000093E-1,2.895000204E-2,9.838950157E0
2.514965404E0,1.469999999E-1,2.400000021E-2,9.834000587E0
2.517465790E0,1.469999999E-1,4.800000042E-2,9.859950066E0
2.519966098E0,1.830000132E-1,3.600000218E-2,9.847950935E0
2.522466634E0,2.070000172E-1,3.299999982E-2,9.856050491E0
2.524967055E0,1.920000017E-1,3.795000166E-2,9.874950409E0
2.527467591E0,1.540500075E-1,7.395000011E-2,9.858000755E0
2.529967978E0,1.540500075E-1,6.705000252E-2,9.838950157E0
2.532468515E0,1.489500105E-1,6.900000572E-2,9.813000679E0
2.534968930E0,1.369500011E-1,8.100000024E-2,9.829050064E0
2.537469467E0,1.399500072E-1,1.030500084E-1,9.865050316E0
2.539969853E0,1.469999999E-1,1.050000042E-1,9.846000671E0
2.542470390E0,1.560000032E-1,1.200000048E-1,9.865050316E0
2.544970776E0,1.440000087E-1,1.459500045E-1,9.858000755E0
2.547471299E0,1.129500046E-1,1.600500047E-1,9.822000504E0
2.549971685E0,9.195000678E-2,1.560000032E-1,9.829050064E0
2.552472222E0,7.304999977E-2,1.680000126E-1,9.844050407E0
2.554972609E0,7.995000482E-2,1.750500053E-1,9.846000671E0
2.557473135E0,1.159500033E-1,1.840500087E-1,9.859950066E0
2.559973522E0,1.420500129E-1,1.750500053E-1,9.850950241E0
2.562473829E0,1.200000048E-1,1.840500087E-1,9.846000671E0
2.564974366E0,6.105000153E-2,1.960500032E-1,9.856050491E0
2.567474762E0,8.700000495E-2,1.909500062E-1,9.838950157E0
2.569975299E0,1.180500090E-1,1.909500062E-1,9.841050148E0
2.572475685E0,1.420500129E-1,1.560000032E-1,9.853050232E0
2.574976222E0,1.759500057E-1,1.699500084E-1,9.850950241E0
2.577476609E0,1.780500114E-1,1.800000072E-1,9.859950066E0
2.579977145E0,1.710000038E-1,1.750500053E-1,9.859950066E0
2.582477532E0,1.729500145E-1,1.720500141E-1,9.847950935E0
2.584977839E0,1.759500057E-1,1.480500102E-1,9.829050064E0
2.587478376E0,1.990500093E-1,1.560000032E-1,9.822000504E0
2.589978805E0,1.900500059E-1,1.579500139E-1,9.844050407E0
2.592479342E0,1.849500090E-1,1.390500069E-1,9.858000755E0
2.594979729E0,2.329500169E-1,1.050000042E-1,9.870000839E0
2.597480265E0,2.449500114E-1,1.270500124E-1,9.859950066E0
2.599980666E0,2.089500129E-1,1.360500008E-1,9.850950241E0
2.602481202E0,1.830000132E-1,1.270500124E-1,9.829050064E0
2.604981589E0,1.900500059E-1,1.030500084E-1,9.820050240E0
2.607482125E0,2.160000056E-1,6.900000572E-2,9.826950073E0
2.609982507E0,2.400000095E-1,7.695000619E-2,9.844050407E0
2.612483043E0,2.470500171E-1,5.505000427E-2,9.858000755E0
2.614983430E0,2.430000156E-1,3.299999982E-2,9.850950241E0
2.617483966E0,2.280000150E-1,2.595000155E-2,9.841050148E0
2.619984305E0,2.260500044E-1,1.905000024E-2,9.847950935E0
2.622484841E0,2.569500208E-1,4.950000439E-3,9.834000587E0
2.624985151E0,2.310000062E-1,0.000000000E0,9.829050064E0
2.627485534E0,2.350500077E-1,-9.000000544E-3,9.856050491E0
2.629986063E0,2.550000250E-1,-1.305000018E-2,9.871950150E0
2.632486450E0,2.740500271E-1,-1.305000018E-2,9.865050316E0
2.634986986E0,2.569500208E-1,7.050000131E-3,9.847950935E0
2.637487373E0,2.140500098E-1,2.595000155E-2,9.838950157E0
2.639987933E0,1.780500114E-1,1.695000008E-2,9.826950073E0
2.642488320E0,1.849500090E-1,4.950000439E-3,9.808050156E0
2.644988857E0,1.990500093E-1,2.895000204E-2,9.846000671E0
2.647489166E0,1.990500093E-1,1.695000008E-2,9.856050491E0
2.649989549E0,2.070000172E-1,2.895000204E-2,9.853050232E0
2.652490101E0,1.759500057E-1,2.400000021E-2,9.853050232E0
2.654990488E0,1.420500129E-1,4.500000179E-2,9.844050407E0
2.657491024E0,1.540500075E-1,3.299999982E-2,9.834000587E0
2.659991411E0,1.759500057E-1,1.695000008E-2,9.826950073E0
2.662491937E0,1.969500035E-1,1.905000024E-2,9.834000587E0
2.664992324E0,2.140500098E-1,2.595000155E-2,9.858000755E0
2.667492861E0,2.260500044E-1,7.050000131E-3,9.868050575E0
2.669993247E0,2.569500208E-1,4.950000439E-3,9.859950066E0
2.672493760E0,2.500500083E-1,3.105000220E-2,9.834000587E0
2.674994146E0,2.329500169E-1,1.395000052E-2,9.829050064E0
2.677494683E0,2.590500116E-1,3.299999982E-2,9.832050323E0
2.679995069E0,2.639999986E-1,2.205000073E-2,9.832050323E0
2.682495606E0,2.950500250E-1,-4.050000105E-3,9.835950851E0
2.684995997E0,3.120000064E-1,-4.050000105E-3,9.856050491E0
2.687496534E0,2.860500216E-1,1.005000062E-2,9.856050491E0
2.689996921E0,2.590500116E-1,1.395000052E-2,9.847950935E0
2.692497228E0,2.209500074E-1,1.395000052E-2,9.835950851E0
2.694997740E0,2.380500138E-1,1.950000064E-3,9.826950073E0
2.697498126E0,2.639999986E-1,4.950000439E-3,9.814950943E0
2.699998663E0,2.449500114E-1,4.950000439E-3,9.841050148E0
2.702499049E0,2.260500044E-1,-2.100000158E-2,9.858000755E0
2.704999581E0,2.280000150E-1,-3.495000303E-2,9.858000755E0
2.707499967E0,2.329500169E-1,-3.299999982E-2,9.846000671E0
2.710000504E0,2.160000056E-1,-3.299999982E-2,9.829050064E0
2.712500814E0,1.990500093E-1,-3.705000132E-2,9.822000504E0
2.715001196E0,2.110500038E-1,-5.895000324E-2,9.841050148E0
2.717501725E0,2.350500077E-1,-7.605000585E-2,9.838950157E0
2.720002111E0,2.639999986E-1,-9.000000358E-2,9.859950066E0
2.722502648E0,2.569500208E-1,-1.039500013E-1,9.859950066E0
2.725003034E0,2.449500114E-1,-1.000500023E-1,9.856050491E0
2.727503571E0,2.110500038E-1,-7.800000161E-2,9.850950241E0
2.730003958E0,2.089500129E-1,-9.195000678E-2,9.841050148E0
2.732504494E0,2.140500098E-1,-1.069500074E-1,9.834000587E0
2.735004881E0,2.140500098E-1,-1.360500008E-1,9.825000763E0
2.737505403E0,1.830000132E-1,-1.140000075E-1,9.862950325E0
2.740005790E0,1.440000087E-1,-1.260000020E-1,9.874950409E0
2.742506326E0,1.519500017E-1,-1.360500008E-1,9.859950066E0
2.745006713E0,1.279500127E-1,-1.120500043E-1,9.847950935E0
2.747507249E0,1.110000089E-1,-1.159500033E-1,9.838950157E0
2.750007631E0,9.405000508E-2,-1.039500013E-1,9.838950157E0
2.752508167E0,1.039500013E-1,-1.120500043E-1,9.844050407E0
2.755008477E0,1.090500057E-1,-1.260000020E-1,9.847950935E0
2.757508860E0,1.129500046E-1,-1.309500039E-1,9.868050575E0
2.760009370E0,1.200000048E-1,-1.140000075E-1,9.858000755E0
2.762509757E0,8.700000495E-2,-1.090500057E-1,9.859950066E0
2.765010293E0,7.304999977E-2,-9.495000541E-2,9.826950073E0
2.767510680E0,8.505000174E-2,-1.020000055E-1,9.841050148E0
2.770011206E0,1.159500033E-1,-7.095000148E-2,9.847950935E0
2.772511593E0,1.350000054E-1,-7.605000585E-2,9.856050491E0
2.775012129E0,1.469999999E-1,-7.800000161E-2,9.862950325E0
2.777512439E0,1.200000048E-1,-7.304999977E-2,9.859950066E0
2.780013063E0,1.249500066E-1,-5.205000192E-2,9.853050232E0
2.782513372E0,1.060500070E-1,-2.805000171E-2,9.820050240E0
2.785013757E0,8.895000070E-2,-1.800000109E-2,9.841050148E0
2.787514293E0,1.060500070E-1,-2.295000106E-2,9.853050232E0
2.790014680E0,9.705000371E-2,-6.000000052E-3,9.856050491E0
2.792515249E0,8.505000174E-2,-1.305000018E-2,9.871950150E0
2.795015636E0,7.304999977E-2,-1.305000018E-2,9.870000839E0
2.797516172E0,6.495000422E-2,1.905000024E-2,9.859950066E0
2.800016559E0,3.900000080E-2,4.305000231E-2,9.829050064E0
2.802517096E0,2.700000070E-2,4.995000362E-2,9.844050407E0
2.805017482E0,5.595000088E-2,7.050000131E-3,9.862950325E0
2.807518019E0,1.180500090E-1,3.600000218E-2,9.856050491E0
2.810018405E0,1.200000048E-1,2.895000204E-2,9.853050232E0
2.812518927E0,1.129500046E-1,2.400000021E-2,9.874950409E0
2.815019313E0,1.129500046E-1,3.600000218E-2,9.870000839E0
2.817519621E0,1.249500066E-1,1.695000008E-2,9.844050407E0
2.820020158E0,1.710000038E-1,2.595000155E-2,9.832050323E0
2.822520544E0,1.639500111E-1,3.299999982E-2,9.838950157E0
2.825021058E0,1.680000126E-1,3.299999982E-2,9.841050148E0
2.827521444E0,1.609500051E-1,1.200000010E-2,9.844050407E0
2.830021981E0,1.519500017E-1,1.200000010E-2,9.859950066E0
2.832522367E0,1.639500111E-1,0.000000000E0,9.853050232E0
2.835022904E0,1.590000093E-1,2.595000155E-2,9.832050323E0
2.837523290E0,1.249500066E-1,5.505000427E-2,9.841050148E0
2.840023598E0,1.110000089E-1,3.600000218E-2,9.834000587E0
2.842524212E0,1.180500090E-1,1.200000010E-2,9.838950157E0
2.845024521E0,1.489500105E-1,4.950000439E-3,9.853050232E0
2.847525135E0,1.519500017E-1,1.200000010E-2,9.846000671E0
2.850025439E0,1.090500057E-1,1.950000064E-3,9.862950325E0
2.852525976E0,1.060500070E-1,1.695000008E-2,9.865050316E0
2.855026362E0,1.110000089E-1,4.095000029E-2,9.844050407E0
2.857526899E0,1.540500075E-1,3.105000220E-2,9.825000763E0
2.860027285E0,1.680000126E-1,1.695000008E-2,9.832050323E0
2.862527822E0,2.040000111E-1,1.695000008E-2,9.844050407E0
2.865028209E0,1.849500090E-1,1.950000064E-3,9.853050232E0
2.867528745E0,2.040000111E-1,4.950000439E-3,9.850950241E0
2.870029127E0,2.310000062E-1,1.395000052E-2,9.838950157E0
2.872529663E0,2.520000041E-1,1.905000024E-2,9.810000420E0
2.875030050E0,2.449500114E-1,1.395000052E-2,9.826950073E0
2.877530586E0,2.449500114E-1,1.395000052E-2,9.820050240E0
2.880030973E0,2.639999986E-1,-4.050000105E-3,9.847950935E0
2.882531285E0,2.639999986E-1,-1.050000079E-3,9.870000839E0
2.885031821E0,2.639999986E-1,1.395000052E-2,9.865050316E0
2.887532208E0,2.670000196E-1,3.105000220E-2,9.847950935E0
2.890032744E0,2.569500208E-1,4.095000029E-2,9.826950073E0
2.892533131E0,2.430000156E-1,1.905000024E-2,9.834000587E0
2.895033677E0,2.280000150E-1,3.600000218E-2,9.829050064E0
2.897534064E0,2.520000041E-1,3.795000166E-2,9.846000671E0
2.900034600E0,2.670000196E-1,4.995000362E-2,9.850950241E0
2.902534987E0,2.590500116E-1,4.500000179E-2,9.856050491E0
2.905035537E0,2.590500116E-1,6.000000238E-2,9.838950157E0
2.907535847E0,2.779500186E-1,7.695000619E-2,9.835950851E0
2.910036460E0,2.689500153E-1,9.600000083E-2,9.817050934E0
2.912536770E0,2.740500271E-1,8.895000070E-2,9.826950073E0
2.915037399E0,2.899500132E-1,8.595000207E-2,9.841050148E0
2.917537708E0,3.049500287E-1,8.895000070E-2,9.841050148E0
2.920038093E0,3.019500077E-1,8.400000632E-2,9.856050491E0
2.922538629E0,3.049500287E-1,9.300000221E-2,9.858000755E0
2.925039011E0,3.019500077E-1,1.170000061E-1,9.826950073E0
2.927539547E0,2.779500186E-1,1.099500060E-1,9.834000587E0
2.930039934E0,2.740500271E-1,1.030500084E-1,9.835950851E0
2.932540480E0,2.860500216E-1,8.595000207E-2,9.846000671E0
2.935040867E0,3.100500107E-1,9.795000404E-2,9.835950851E0
2.937541404E0,2.950500250E-1,1.080000028E-1,9.850950241E0
2.940041790E0,2.710500062E-1,1.170000061E-1,9.859950066E0
2.942542327E0,2.779500186E-1,1.170000061E-1,9.856050491E0
2.945042636E0,2.779500186E-1,1.170000061E-1,9.834000587E0
2.947543259E0,2.569500208E-1,1.170000061E-1,9.820050240E0
2.950043568E0,2.470500171E-1,1.290000081E-1,9.825000763E0
2.952543953E0,2.760000229E-1,1.219500080E-1,9.838950157E0
2.955044490E0,2.830500007E-1,9.795000404E-2,9.838950157E0
2.957544866E0,2.760000229E-1,9.300000221E-2,9.859950066E0
2.960045403E0,2.809500098E-1,1.150500029E-1,9.853050232E0
2.962545789E0,3.019500077E-1,1.219500080E-1,9.820050240E0
2.965046326E0,2.779500186E-1,9.795000404E-2,9.822000504E0
2.967546708E0,2.760000229E-1,1.030500084E-1,9.838950157E0
2.970047016E0,2.899500132E-1,8.895000070E-2,9.829050064E0
2.972547553E0,3.070500195E-1,1.009500027E-1,9.832050323E0
2.975047939E0,3.379500210E-1,1.030500084E-1,9.844050407E0
2.977548557E0,2.899500132E-1,9.600000083E-2,9.853050232E0
2.980048866E0,2.710500062E-1,8.100000024E-2,9.847950935E0
2.982549403E0,2.500500083E-1,7.395000011E-2,9.810000420E0
2.985049789E0,2.520000041E-1,8.100000024E-2,9.826950073E0
2.987550322E0,2.590500116E-1,6.195000187E-2,9.850950241E0
2.990050708E0,2.689500153E-1,5.700000376E-2,9.835950851E0
2.992551245E0,2.620500028E-1,6.900000572E-2,9.856050491E0
2.995051631E0,2.310000062E-1,6.705000252E-2,9.871950150E0
2.997552168E0,2.160000056E-1,8.895000070E-2,9.844050407E0
3.000052550E0,2.140500098E-1,9.600000083E-2,9.822000504E0
3.002553086E0,1.879500151E-1,7.395000011E-2,9.829050064E0
3.005053473E0,1.849500090E-1,8.895000070E-2,9.841050148E0
3.007554009E0,1.900500059E-1,1.080000028E-1,9.850950241E0
3.010054410E0,2.140500098E-1,1.099500060E-1,9.841050148E0
3.012554717E0,1.780500114E-1,1.170000061E-1,9.868050575E0
3.015055254E0,1.759500057E-1,1.240500063E-1,9.853050232E0
3.017555641E0,1.609500051E-1,1.240500063E-1,9.826950073E0
3.020056187E0,1.300500035E-1,1.319999993E-1,9.826950073E0
3.022556574E0,1.319999993E-1,1.480500102E-1,9.841050148E0
3.025057110E0,1.399500072E-1,1.510500014E-1,9.844050407E0
3.027557497E0,1.489500105E-1,1.600500047E-1,9.856050491E0
3.030058018E0,1.300500035E-1,1.510500014E-1,9.870000839E0
3.032558405E0,1.039500013E-1,1.579500139E-1,9.853050232E0
3.035058713E0,9.900000691E-2,1.680000126E-1,9.844050407E0
3.037559249E0,9.195000678E-2,1.750500053E-1,9.835950851E0
3.040059636E0,6.495000422E-2,1.819500029E-1,9.850950241E0
3.042560172E0,7.500000298E-2,1.579500139E-1,9.868050575E0
3.045060559E0,1.180500090E-1,1.750500053E-1,9.862950325E0
3.047561095E0,1.009500027E-1,1.600500047E-1,9.859950066E0
3.050061482E0,8.505000174E-2,1.720500141E-1,9.862950325E0
3.052562014E0,9.195000678E-2,1.720500141E-1,9.853050232E0
3.055062401E0,9.900000691E-2,1.699500084E-1,9.832050323E0
3.057562937E0,8.895000070E-2,1.680000126E-1,9.844050407E0
3.060063324E0,1.279500127E-1,1.630500108E-1,9.856050491E0
3.062563860E0,1.469999999E-1,1.510500014E-1,9.841050148E0
3.065064246E0,1.680000126E-1,1.650000066E-1,9.853050232E0
3.067564783E0,1.489500105E-1,1.390500069E-1,9.865050316E0
3.070065169E0,1.399500072E-1,1.390500069E-1,9.858000755E0
3.072565706E0,1.540500075E-1,1.290000081E-1,9.835950851E0
3.075066092E0,1.639500111E-1,1.099500060E-1,9.829050064E0
3.077566629E0,1.560000032E-1,9.795000404E-2,9.859950066E0
3.080066938E0,2.040000111E-1,9.105000645E-2,9.850950241E0
3.082567321E0,2.190000117E-1,7.905000448E-2,9.862950325E0
3.085067845E0,2.209500074E-1,6.495000422E-2,9.856050491E0
3.087568232E0,1.990500093E-1,7.695000619E-2,9.847950935E0
3.090068769E0,2.209500074E-1,6.900000572E-2,9.825000763E0
3.092569155E0,2.110500038E-1,3.299999982E-2,9.826950073E0
3.095069692E0,1.800000072E-1,3.299999982E-2,9.846000671E0
3.097570083E0,2.140500098E-1,3.795000166E-2,9.850950241E0
3.100070620E0,2.260500044E-1,3.105000220E-2,9.856050491E0
3.102570929E0,2.329500169E-1,3.299999982E-2,9.850950241E0
3.105071312E0,1.969500035E-1,4.305000231E-2,9.847950935E0
3.107571841E0,1.800000072E-1,5.700000376E-2,9.846000671E0
3.110072227E0,1.900500059E-1,6.000000238E-2,9.817050934E0
3.112572764E0,1.609500051E-1,3.795000166E-2,9.838950157E0
3.115073150E0,1.780500114E-1,4.305000231E-2,9.846000671E0
3.117573663E0,1.969500035E-1,2.595000155E-2,9.870000839E0
3.120074049E0,2.040000111E-1,3.105000220E-2,9.868050575E0
3.122574586E0,1.729500145E-1,4.500000179E-2,9.858000755E0
3.125074972E0,1.560000032E-1,5.295000225E-2,9.847950935E0
3.127575509E0,1.729500145E-1,5.700000376E-2,9.826950073E0
3.130075896E0,1.660500020E-1,4.305000231E-2,9.822000504E0
3.132576432E0,1.540500075E-1,6.495000422E-2,9.841050148E0
3.135076819E0,1.830000132E-1,6.900000572E-2,9.858000755E0
3.137577355E0,1.800000072E-1,7.695000619E-2,9.850950241E0
3.140077728E0,1.639500111E-1,6.900000572E-2,9.858000755E0
3.142578264E0,1.300500035E-1,7.395000011E-2,9.856050491E0
3.145078574E0,1.350000054E-1,8.895000070E-2,9.820050240E0
3.147578956E0,1.350000054E-1,9.600000083E-2,9.832050323E0
3.150079499E0,1.350000054E-1,8.895000070E-2,9.846000671E0
3.152579886E0,1.300500035E-1,9.300000221E-2,9.862950325E0
3.155080422E0,1.489500105E-1,8.895000070E-2,9.847950935E0
3.157580809E0,1.350000054E-1,1.050000042E-1,9.868050575E0
3.160081374E0,1.249500066E-1,9.600000083E-2,9.853050232E0
3.162581761E0,1.110000089E-1,9.795000404E-2,9.825000763E0
3.165082297E0,1.230000034E-1,9.600000083E-2,9.834000587E0
3.167582684E0,1.060500070E-1,9.105000645E-2,9.850950241E0
3.170083002E0,1.369500011E-1,8.895000070E-2,9.868050575E0
3.172583538E0,1.560000032E-1,6.900000572E-2,9.859950066E0
3.175083925E0,1.540500075E-1,6.705000252E-2,9.858000755E0
3.177584461E0,1.420500129E-1,7.395000011E-2,9.853050232E0
3.180084848E0,1.560000032E-1,4.800000042E-2,9.834000587E0
3.182585379E0,1.830000132E-1,6.900000572E-2,9.825000763E0
3.185085766E0,2.020500153E-1,6.705000252E-2,9.829050064E0
3.187586302E0,1.879500151E-1,4.995000362E-2,9.835950851E0
3.190086689E0,2.209500074E-1,4.095000029E-2,9.859950066E0
3.192587215E0,2.400000095E-1,2.895000204E-2,9.862950325E0
3.195087602E0,2.089500129E-1,3.795000166E-2,9.841050148E0
3.197588138E0,1.900500059E-1,3.105000220E-2,9.832050323E0
3.200088525E0,2.020500153E-1,3.299999982E-2,9.814950943E0
3.202589077E0,1.969500035E-1,3.105000220E-2,9.829050064E0
3.205089386E0,1.990500093E-1,2.595000155E-2,9.841050148E0
3.207590000E0,1.969500035E-1,3.105000220E-2,9.847950935E0
3.210090386E0,2.070000172E-1,4.500000179E-2,9.856050491E0
3.212590923E0,1.800000072E-1,1.695000008E-2,9.838950157E0
3.215091232E0,1.489500105E-1,1.200000010E-2,9.847950935E0
3.217591615E0,1.519500017E-1,7.050000131E-3,9.834000587E0
3.220092153E0,1.729500145E-1,1.395000052E-2,9.814950943E0
3.222592540E0,1.849500090E-1,2.400000021E-2,9.850950241E0
3.225093072E0,1.729500145E-1,3.600000218E-2,9.868050575E0
3.227593458E0,1.759500057E-1,1.395000052E-2,9.859950066E0
3.230093995E0,1.879500151E-1,-6.000000052E-3,9.853050232E0
3.232594381E0,1.729500145E-1,1.200000010E-2,9.850950241E0
3.235094699E0,1.950000077E-1,1.200000010E-2,9.841050148E0
3.237595235E0,1.879500151E-1,2.595000155E-2,9.838950157E0
3.240095622E0,1.759500057E-1,1.950000064E-3,9.844050407E0
3.242596159E0,1.710000038E-1,1.005000062E-2,9.865050316E0
3.245096540E0,1.800000072E-1,1.905000024E-2,9.877050400E0
3.247597077E0,1.759500057E-1,2.400000021E-2,9.853050232E0
3.250097463E0,1.489500105E-1,1.200000010E-2,9.844050407E0
3.252598000E0,1.180500090E-1,2.895000204E-2,9.859950066E0
3.255098386E0,1.230000034E-1,5.295000225E-2,9.822000504E0
3.257598937E0,1.350000054E-1,2.595000155E-2,9.838950157E0
3.260099323E0,1.350000054E-1,3.600000218E-2,9.862950325E0
3.262599860E0,1.279500127E-1,2.400000021E-2,9.874950409E0
3.265100247E0,1.180500090E-1,2.895000204E-2,9.868050575E0
3.267600788E0,1.300500035E-1,3.105000220E-2,9.858000755E0
3.270101175E0,1.319999993E-1,4.095000029E-2,9.838950157E0
3.272601482E0,1.609500051E-1,3.105000220E-2,9.825000763E0
3.275102096E0,1.660500020E-1,2.400000021E-2,9.825000763E0
3.277602405E0,1.660500020E-1,2.400000021E-2,9.856050491E0
3.280102951E0,1.710000038E-1,2.895000204E-2,9.877050400E0
3.282603337E0,1.990500093E-1,4.095000029E-2,9.858000755E0
3.285103874E0,2.160000056E-1,1.200000010E-2,9.847950935E0
3.287604261E0,2.020500153E-1,2.400000021E-2,9.834000587E0
3.290104817E0,2.089500129E-1,3.299999982E-2,9.834000587E0
3.292605204E0,2.110500038E-1,3.299999982E-2,9.808050156E0
3.295105740E0,2.230500132E-1,4.995000362E-2,9.841050148E0
3.297606127E0,2.190000117E-1,4.995000362E-2,9.856050491E0
3.300106438E0,2.110500038E-1,3.795000166E-2,9.844050407E0
3.302606975E0,1.830000132E-1,2.595000155E-2,9.853050232E0
3.305107362E0,1.920000017E-1,3.105000220E-2,9.844050407E0
3.307607898E0,1.800000072E-1,5.295000225E-2,9.838950157E0
3.310108300E0,1.920000017E-1,6.495000422E-2,9.820050240E0
3.312608836E0,1.900500059E-1,5.295000225E-2,9.847950935E0
3.315109223E0,1.780500114E-1,4.800000042E-2,9.871950150E0
3.317609759E0,1.710000038E-1,4.305000231E-2,9.865050316E0
3.320110146E0,2.020500153E-1,2.595000155E-2,9.858000755E0
3.322610687E0,1.849500090E-1,4.305000231E-2,9.847950935E0
3.325111074E0,1.800000072E-1,2.400000021E-2,9.832050323E0
3.327611610E0,1.950000077E-1,1.695000008E-2,9.820050240E0
3.330111997E0,2.020500153E-1,1.695000008E-2,9.835950851E0
3.332612528E0,2.209500074E-1,2.595000155E-2,9.838950157E0
3.335112838E0,2.280000150E-1,3.299999982E-2,9.858000755E0
3.337613452E0,2.160000056E-1,1.395000052E-2,9.853050232E0
3.340113761E0,2.089500129E-1,1.200000010E-2,9.847950935E0
3.342614370E0,2.070000172E-1,1.695000008E-2,9.844050407E0
3.345114679E0,2.190000117E-1,3.600000218E-2,9.834000587E0
3.347615064E0,2.310000062E-1,3.105000220E-2,9.844050407E0
3.350115600E0,2.160000056E-1,1.395000052E-2,9.841050148E0
3.352615963E0,2.040000111E-1,1.005000062E-2,9.850950241E0
3.355116500E0,2.110500038E-1,2.400000021E-2,9.858000755E0
3.357616886E0,2.190000117E-1,-1.050000079E-3,9.847950935E0
3.360117423E0,2.260500044E-1,1.950000064E-3,9.835950851E0
3.362617809E0,2.260500044E-1,7.050000131E-3,9.844050407E0
3.365118346E0,2.160000056E-1,1.950000064E-3,9.847950935E0
3.367618732E0,2.190000117E-1,-1.305000018E-2,9.835950851E0
3.370119040E0,2.280000150E-1,-9.000000544E-3,9.847950935E0
3.372619576E0,2.520000041E-1,-2.805000171E-2,9.856050491E0
3.375119958E0,2.760000229E-1,-3.000000119E-2,9.847950935E0
3.377620495E0,2.520000041E-1,-3.000000119E-2,9.832050323E0
3.380120881E0,2.569500208E-1,-2.805000171E-2,9.829050064E0
3.382621418E0,2.830500007E-1,-1.305000018E-2,9.841050148E0
3.385121799E0,2.809500098E-1,-3.495000303E-2,9.834000587E0
3.387622336E0,2.899500132E-1,-3.705000132E-2,9.834000587E0
3.390122722E0,2.620500028E-1,-4.905000329E-2,9.846000671E0
3.392623259E0,2.779500186E-1,-2.505000122E-2,9.847950935E0
3.395123640E0,2.639999986E-1,-3.495000303E-2,9.832050323E0
3.397624177E0,2.500500083E-1,-1.800000109E-2,9.846000671E0
3.400124564E0,2.639999986E-1,-9.000000544E-3,9.822000504E0
3.402624871E0,2.470500171E-1,-3.000000119E-2,9.832050323E0
3.405125481E0,2.470500171E-1,-4.500000179E-2,9.856050491E0
3.407625790E0,2.569500208E-1,-4.200000316E-2,9.846000671E0
3.410126404E0,2.689500153E-1,-2.295000106E-2,9.856050491E0
3.412626713E0,2.620500028E-1,-4.905000329E-2,9.835950851E0
3.415127250E0,2.329500169E-1,-6.405000389E-2,9.846000671E0
3.417627631E0,2.350500077E-1,-3.000000119E-2,9.838950157E0
3.420128168E0,2.449500114E-1,-1.305000018E-2,9.832050323E0
3.422628555E0,2.740500271E-1,-2.295000106E-2,9.841050148E0
3.425129091E0,2.350500077E-1,-2.805000171E-2,9.850950241E0
3.427629473E0,2.400000095E-1,-4.200000316E-2,9.862950325E0
3.430130009E0,2.569500208E-1,-2.295000106E-2,9.835950851E0
3.432630396E0,2.569500208E-1,-1.095000096E-2,9.829050064E0
3.435130703E0,2.449500114E-1,1.905000024E-2,9.832050323E0
3.437631240E0,2.400000095E-1,1.905000024E-2,9.826950073E0
3.440131627E0,2.160000056E-1,2.895000204E-2,9.846000671E0
3.442632163E0,2.040000111E-1,3.299999982E-2,9.847950935E0
3.445132550E0,2.260500044E-1,6.900000572E-2,9.856050491E0
3.447633086E0,2.280000150E-1,7.395000011E-2,9.859950066E0
3.450133473E0,2.020500153E-1,5.700000376E-2,9.835950851E0
3.452634009E0,1.830000132E-1,9.105000645E-2,9.844050407E0
3.455134396E0,1.710000038E-1,9.600000083E-2,9.825000763E0
3.457634932E0,1.879500151E-1,9.795000404E-2,9.835950851E0
3.460135329E0,1.990500093E-1,1.030500084E-1,9.846000671E0
3.462635865E0,1.950000077E-1,1.050000042E-1,9.859950066E0
3.465136252E0,1.879500151E-1,1.099500060E-1,9.847950935E0
3.467636788E0,2.089500129E-1,9.300000221E-2,9.835950851E0
3.470137175E0,1.830000132E-1,1.150500029E-1,9.829050064E0
3.472637712E0,1.680000126E-1,1.290000081E-1,9.841050148E0
3.475138098E0,1.950000077E-1,1.200000048E-1,9.834000587E0
3.477638406E0,1.990500093E-1,1.319999993E-1,9.834000587E0
3.480138961E0,2.209500074E-1,1.390500069E-1,9.868050575E0
3.482639348E0,2.209500074E-1,1.390500069E-1,9.856050491E0
3.485139884E0,2.520000041E-1,1.410000026E-1,9.822000504E0
3.487640271E0,2.110500038E-1,1.339500099E-1,9.834000587E0
3.490140788E0,2.140500098E-1,1.290000081E-1,9.822000504E0
3.492641174E0,2.089500129E-1,1.390500069E-1,9.838950157E0
3.495141711E0,2.280000150E-1,1.360500008E-1,9.832050323E0
3.497642097E0,2.520000041E-1,1.150500029E-1,9.859950066E0
3.500142634E0,2.470500171E-1,1.150500029E-1,9.846000671E0
3.502642915E0,2.569500208E-1,1.050000042E-1,9.856050491E0
3.505143298E0,2.500500083E-1,8.895000070E-2,9.834000587E0
3.507643836E0,2.280000150E-1,1.080000028E-1,9.822000504E0
3.510144223E0,2.400000095E-1,9.600000083E-2,9.832050323E0
3.512644769E0,2.449500114E-1,6.705000252E-2,9.825000763E0
3.515145155E0,2.520000041E-1,7.200000435E-2,9.859950066E0
3.517645692E0,2.760000229E-1,4.995000362E-2,9.850950241E0
3.520146078E0,2.760000229E-1,6.000000238E-2,9.850950241E0
3.522646634E0,2.880000174E-1,5.700000376E-2,9.844050407E0
3.525147020E0,2.639999986E-1,3.795000166E-2,9.834000587E0
3.527647557E0,2.449500114E-1,5.295000225E-2,9.832050323E0
3.530147943E0,2.809500098E-1,5.505000427E-2,9.829050064E0
3.532648480E0,2.929500043E-1,4.800000042E-2,9.835950851E0
3.535148872E0,2.899500132E-1,4.800000042E-2,9.838950157E0
3.537649408E0,3.019500077E-1,4.095000029E-2,9.847950935E0
3.540149718E0,2.779500186E-1,2.400000021E-2,9.825000763E0
3.542650331E0,2.670000196E-1,4.500000179E-2,9.825000763E0
3.545150632E0,2.520000041E-1,4.800000042E-2,9.844050407E0
3.547651016E0,2.710500062E-1,2.895000204E-2,9.829050064E0
3.550151553E0,2.740500271E-1,3.299999982E-2,9.835950851E0
3.552651940E0,2.670000196E-1,4.305000231E-2,9.859950066E0
3.555152485E0,2.760000229E-1,2.595000155E-2,9.871950150E0
3.557652872E0,2.779500186E-1,2.895000204E-2,9.826950073E0
3.560153408E0,2.670000196E-1,4.305000231E-2,9.813000679E0
3.562653795E0,2.500500083E-1,3.795000166E-2,9.834000587E0
3.565154331E0,2.550000250E-1,4.800000042E-2,9.829050064E0
3.567654728E0,2.520000041E-1,4.305000231E-2,9.832050323E0
3.570155035E0,2.639999986E-1,3.795000166E-2,9.853050232E0
3.572655572E0,2.880000174E-1,3.105000220E-2,9.865050316E0
3.575155959E0,2.899500132E-1,6.000000238E-2,9.846000671E0
3.577656504E0,2.520000041E-1,4.305000231E-2,9.838950157E0
3.580156891E0,2.350500077E-1,4.305000231E-2,9.847950935E0
3.582657427E0,2.380500138E-1,7.200000435E-2,9.829050064E0
3.585157814E0,2.689500153E-1,6.195000187E-2,9.832050323E0
3.587658345E0,2.899500132E-1,6.195000187E-2,9.835950851E0
3.590158732E0,2.779500186E-1,5.295000225E-2,9.844050407E0
3.592659268E0,2.880000174E-1,6.705000252E-2,9.862950325E0
3.595159655E0,2.880000174E-1,5.700000376E-2,9.822000504E0
3.597660177E0,2.860500216E-1,5.505000427E-2,9.825000763E0
3.600160564E0,2.590500116E-1,6.195000187E-2,9.835950851E0
3.602660872E0,2.809500098E-1,3.795000166E-2,9.826950073E0
3.605161485E0,2.899500132E-1,3.600000218E-2,9.865050316E0
3.607661780E0,2.809500098E-1,1.005000062E-2,9.859950066E0
3.610162393E0,2.830500007E-1,-1.095000096E-2,9.853050232E0
3.612662703E0,2.760000229E-1,-1.095000096E-2,9.834000587E0
3.615163239E0,2.590500116E-1,-1.095000096E-2,9.832050323E0
3.617663626E0,2.190000117E-1,-1.800000109E-2,9.834000587E0
3.620164162E0,2.350500077E-1,-3.705000132E-2,9.847950935E0
3.622664549E0,2.380500138E-1,-3.495000303E-2,9.838950157E0
3.625165086E0,2.280000150E-1,-4.005000368E-2,9.856050491E0
3.627665472E0,1.950000077E-1,-5.205000192E-2,9.862950325E0
3.630165986E0,1.920000017E-1,-3.000000119E-2,9.841050148E0
3.632666372E0,1.680000126E-1,-4.005000368E-2,9.832050323E0
3.635166909E0,1.560000032E-1,-3.299999982E-2,9.835950851E0
3.637667295E0,1.590000093E-1,-3.495000303E-2,9.835950851E0
3.640167603E0,1.590000093E-1,-2.505000122E-2,9.844050407E0
3.642668125E0,1.590000093E-1,-2.805000171E-2,9.850950241E0
3.645168512E0,1.560000032E-1,-2.295000106E-2,9.862950325E0
3.647669049E0,1.680000126E-1,-9.000000544E-3,9.841050148E0
3.650169435E0,1.519500017E-1,-3.000000119E-2,9.838950157E0
3.652669938E0,1.090500057E-1,-2.295000106E-2,9.829050064E0
3.655170324E0,1.200000048E-1,1.950000064E-3,9.846000671E0
3.657670861E0,1.369500011E-1,-1.605000161E-2,9.841050148E0
3.660171247E0,1.440000087E-1,-2.805000171E-2,9.858000755E0
3.662671784E0,1.590000093E-1,-2.805000171E-2,9.882000923E0
3.665172104E0,1.249500066E-1,-3.299999982E-2,9.844050407E0
3.667672717E0,1.090500057E-1,-1.305000018E-2,9.834000587E0
3.670173027E0,9.405000508E-2,-3.000000119E-2,9.838950157E0
3.672673640E0,7.005000114E-2,-3.495000303E-2,9.829050064E0
3.675173964E0,7.695000619E-2,-2.100000158E-2,9.858000755E0
3.677674577E0,8.700000495E-2,-2.805000171E-2,9.865050316E0
3.680174887E0,7.695000619E-2,-2.505000122E-2,9.880050659E0
3.682675500E0,4.605000094E-2,-1.605000161E-2,9.874950409E0
3.685175800E0,3.705000132E-2,-1.605000161E-2,9.858000755E0
3.687676185E0,1.500000060E-2,-6.000000052E-3,9.838950157E0
3.690176721E0,-3.000000026E-3,1.950000064E-3,9.838950157E0
3.692677108E0,7.950000465E-3,-1.050000079E-3,9.865050316E0
3.695177649E0,1.995000057E-2,1.005000062E-2,9.853050232E0
3.697678036E0,3.195000067E-2,-4.050000105E-3,9.850950241E0
3.700178572E0,3.405000269E-2,2.400000021E-2,9.859950066E0
3.702678959E0,-1.050000079E-3,4.950000439E-3,9.856050491E0
3.705179495E0,3.000000026E-3,1.200000010E-2,9.835950851E0
3.707679815E0,-1.695000008E-2,1.695000008E-2,9.850950241E0
3.710180198E0,-1.995000057E-2,3.299999982E-2,9.858000755E0
3.712680721E0,-7.950000465E-3,1.695000008E-2,9.868050575E0
3.715181108E0,-4.950000439E-3,0.000000000E0,9.865050316E0
3.717681644E0,-3.000000026E-3,4.950000439E-3,9.874950409E0
3.720182031E0,-1.695000008E-2,1.200000010E-2,9.862950325E0
3.722682567E0,-2.205000073E-2,4.950000439E-3,9.826950073E0
3.725182954E0,-4.395000264E-2,1.200000010E-2,9.853050232E0
3.727683495E0,-4.905000329E-2,3.105000220E-2,9.865050316E0
3.730183805E0,-2.700000070E-2,4.950000439E-3,9.874950409E0
3.732684188E0,-7.950000465E-3,1.005000062E-2,9.865050316E0
3.735184726E0,-4.950000439E-3,1.200000010E-2,9.880050659E0
3.737685132E0,1.995000057E-2,2.895000204E-2,9.847950935E0
3.740185668E0,1.995000057E-2,2.400000021E-2,9.853050232E0
3.742686055E0,4.095000029E-2,3.795000166E-2,9.846000671E0
3.745186668E0,5.295000225E-2,3.795000166E-2,9.853050232E0
3.747686978E0,7.995000482E-2,1.395000052E-2,9.859950066E0
3.750187591E0,1.200000048E-1,1.950000064E-3,9.858000755E0
3.752687901E0,1.279500127E-1,1.950000064E-3,9.858000755E0
3.755188437E0,1.110000089E-1,3.105000220E-2,9.856050491E0
3.757688820E0,1.350000054E-1,4.950000439E-3,9.841050148E0
3.760189357E0,1.300500035E-1,0.000000000E0,9.825000763E0
3.762689743E0,1.350000054E-1,1.005000062E-2,9.825000763E0
3.765190280E0,1.440000087E-1,2.205000073E-2,9.859950066E0
3.767690666E0,1.440000087E-1,3.795000166E-2,9.862950325E0
3.770191222E0,1.519500017E-1,2.895000204E-2,9.859950066E0
3.772691608E0,1.319999993E-1,4.095000029E-2,9.844050407E0
3.775191916E0,1.249500066E-1,3.105000220E-2,9.846000671E0
3.777692453E0,1.369500011E-1,3.795000166E-2,9.838950157E0
3.780192844E0,1.249500066E-1,6.195000187E-2,9.850950241E0
3.782693381E0,1.249500066E-1,6.495000422E-2,9.846000671E0
3.785193767E0,1.369500011E-1,6.000000238E-2,9.858000755E0
3.787694304E0,1.660500020E-1,6.000000238E-2,9.874950409E0
3.790194690E0,1.540500075E-1,6.900000572E-2,9.858000755E0
3.792695227E0,1.609500051E-1,8.595000207E-2,9.853050232E0
3.795195613E0,1.660500020E-1,9.105000645E-2,9.834000587E0
3.797695921E0,1.780500114E-1,7.905000448E-2,9.847950935E0
3.800196458E0,1.969500035E-1,7.200000435E-2,9.850950241E0
3.802696848E0,2.230500132E-1,9.795000404E-2,9.835950851E0
3.805197385E0,2.310000062E-1,7.695000619E-2,9.847950935E0
3.807697771E0,2.260500044E-1,7.905000448E-2,9.865050316E0
3.810198308E0,2.190000117E-1,8.595000207E-2,9.841050148E0
3.812698694E0,2.329500169E-1,7.905000448E-2,9.838950157E0
3.815199231E0,2.310000062E-1,7.695000619E-2,9.835950851E0
3.817699617E0,2.350500077E-1,9.105000645E-2,9.858000755E0
3.820200154E0,2.470500171E-1,7.395000011E-2,9.834000587E0
3.822700541E0,2.590500116E-1,6.195000187E-2,9.850950241E0
3.825201082E0,2.500500083E-1,5.700000376E-2,9.847950935E0
3.827701469E0,2.430000156E-1,7.395000011E-2,9.838950157E0
3.830202005E0,2.569500208E-1,7.695000619E-2,9.859950066E0
3.832702392E0,2.590500116E-1,7.695000619E-2,9.844050407E0
3.835202943E0,2.550000250E-1,7.695000619E-2,9.832050323E0
3.837703330E0,2.740500271E-1,7.695000619E-2,9.835950851E0
3.840203866E0,2.760000229E-1,6.705000252E-2,9.834000587E0
3.842704176E0,3.000000119E-1,7.905000448E-2,9.850950241E0
3.845204559E0,2.899500132E-1,7.200000435E-2,9.838950157E0
3.847705068E0,2.860500216E-1,8.100000024E-2,9.826950073E0
3.850205455E0,3.139500022E-1,6.195000187E-2,9.834000587E0
3.852705991E0,3.070500195E-1,6.495000422E-2,9.832050323E0
3.855206378E0,3.000000119E-1,7.695000619E-2,9.817050934E0
3.857706918E0,3.220500052E-1,6.705000252E-2,9.838950157E0
3.860207305E0,3.120000064E-1,5.505000427E-2,9.846000671E0
3.862707841E0,2.899500132E-1,4.995000362E-2,9.838950157E0
3.865208228E0,2.760000229E-1,9.300000221E-2,9.834000587E0
3.867708527E0,2.740500271E-1,9.300000221E-2,9.826950073E0
3.870209063E0,2.590500116E-1,1.030500084E-1,9.850950241E0
3.872709450E0,2.520000041E-1,9.795000404E-2,9.841050148E0
3.875209986E0,2.710500062E-1,9.795000404E-2,9.826950073E0
3.877710363E0,2.590500116E-1,1.170000061E-1,9.846000671E0
3.880210899E0,2.329500169E-1,1.200000048E-1,9.838950157E0
3.882711286E0,2.209500074E-1,1.290000081E-1,9.834000587E0
3.885211822E0,2.230500132E-1,1.390500069E-1,9.826950073E0
3.887712219E0,2.449500114E-1,1.360500008E-1,9.835950851E0
3.890212755E0,2.470500171E-1,1.290000081E-1,9.847950935E0
3.892713142E0,2.520000041E-1,1.390500069E-1,9.835950851E0
3.895213679E0,2.590500116E-1,1.319999993E-1,9.853050232E0
3.897714065E0,2.620500028E-1,1.219500080E-1,9.846000671E0
3.900214602E0,2.670000196E-1,1.219500080E-1,9.832050323E0
3.902714988E0,2.689500153E-1,1.339500099E-1,9.829050064E0
3.905215525E0,2.639999986E-1,1.080000028E-1,9.826950073E0
3.907715887E0,2.779500186E-1,1.080000028E-1,9.838950157E0
3.910216424E0,2.670000196E-1,8.895000070E-2,9.834000587E0
3.912716734E0,2.760000229E-1,9.105000645E-2,9.850950241E0
3.915217116E0,2.710500062E-1,6.000000238E-2,9.838950157E0
3.917717655E0,2.620500028E-1,6.195000187E-2,9.834000587E0
3.920218041E0,2.500500083E-1,5.505000427E-2,9.844050407E0
3.922718578E0,2.430000156E-1,5.505000427E-2,9.835950851E0
3.925218964E0,2.260500044E-1,4.995000362E-2,9.825000763E0
3.927719501E0,2.140500098E-1,6.705000252E-2,9.835950851E0
3.930219901E0,2.110500038E-1,3.795000166E-2,9.841050148E0
3.932720438E0,2.230500132E-1,2.895000204E-2,9.846000671E0
3.935220748E0,2.190000117E-1,1.695000008E-2,9.846000671E0
3.937721130E0,2.110500038E-1,2.595000155E-2,9.835950851E0
3.940221669E0,2.230500132E-1,4.995000362E-2,9.841050148E0
3.942722026E0,2.110500038E-1,7.200000435E-2,9.844050407E0
3.945222563E0,2.160000056E-1,4.995000362E-2,9.844050407E0
3.947722949E0,2.230500132E-1,1.905000024E-2,9.838950157E0
3.950223486E0,2.400000095E-1,4.095000029E-2,9.835950851E0
3.952723872E0,2.070000172E-1,3.299999982E-2,9.865050316E0
3.955224409E0,2.020500153E-1,1.695000008E-2,9.853050232E0
3.957724796E0,2.190000117E-1,3.299999982E-2,9.838950157E0
3.960225332E0,2.350500077E-1,4.095000029E-2,9.838950157E0
3.962725714E0,2.230500132E-1,1.395000052E-2,9.826950073E0
3.965226250E0,2.040000111E-1,2.595000155E-2,9.832050323E0
3.967726637E0,1.780500114E-1,1.395000052E-2,9.826950073E0
3.970227173E0,2.070000172E-1,2.205000073E-2,9.850950241E0
3.972727483E0,1.849500090E-1,3.795000166E-2,9.841050148E0
3.975228086E0,1.830000132E-1,1.200000010E-2,9.847950935E0
3.977728473E0,1.540500075E-1,4.950000439E-3,9.832050323E0
3.980228781E0,1.440000087E-1,3.299999982E-2,9.841050148E0
3.982729317E0,1.159500033E-1,7.050000131E-3,9.838950157E0
3.985229700E0,1.420500129E-1,3.600000218E-2,9.858000755E0
3.987730236E0,1.300500035E-1,2.595000155E-2,9.850950241E0
3.990230623E0,1.009500027E-1,3.105000220E-2,9.858000755E0
3.992731159E0,8.700000495E-2,2.595000155E-2,9.865050316E0
3.995231546E0,9.195000678E-2,1.200000010E-2,9.838950157E0
3.997732077E0,9.405000508E-2,1.950000064E-3,9.841050148E0
4.000232464E0,6.795000285E-2,1.395000052E-2,9.858000755E0
4.002733000E0,6.300000101E-2,2.400000021E-2,9.847950935E0
4.005233387E0,4.605000094E-2,4.950000439E-3,9.862950325E0
4.007733685E0,6.495000422E-2,4.950000439E-3,9.859950066E0
4.010234298E0,5.805000290E-2,1.905000024E-2,9.862950325E0
4.012734608E0,1.995000057E-2,-4.050000105E-3,9.847950935E0
4.015235144E0,4.095000029E-2,1.005000062E-2,9.844050407E0
4.017735541E0,2.700000070E-2,-1.050000079E-3,9.838950157E0
4.020236077E0,4.095000029E-2,-1.095000096E-2,9.853050232E0
4.022736464E0,6.105000153E-2,-9.000000544E-3,9.858000755E0
4.025237000E0,4.395000264E-2,1.950000064E-3,9.859950066E0
4.027737382E0,3.405000269E-2,-1.050000079E-3,9.862950325E0
4.030237919E0,4.905000329E-2,-1.050000079E-3,9.844050407E0
4.032738305E0,6.495000422E-2,-4.050000105E-3,9.844050407E0
4.035238842E0,7.695000619E-2,-2.295000106E-2,9.834000587E0
4.037739238E0,9.195000678E-2,1.950000064E-3,9.850950241E0
4.040239546E0,1.039500013E-1,1.950000064E-3,9.859950066E0
4.042740159E0,1.060500070E-1,-3.000000119E-2,9.853050232E0
4.045240469E0,1.440000087E-1,-4.500000179E-2,9.846000671E0
4.047741082E0,1.639500111E-1,-4.200000316E-2,9.844050407E0
4.050241392E0,1.590000093E-1,-3.495000303E-2,9.835950851E0
4.052741929E0,1.660500020E-1,-4.905000329E-2,9.853050232E0
4.055242315E0,1.759500057E-1,-5.700000376E-2,9.834000587E0
4.057742852E0,1.950000077E-1,-6.599999964E-2,9.841050148E0
4.060243242E0,2.089500129E-1,-7.605000585E-2,9.844050407E0
4.062743779E0,2.160000056E-1,-7.800000161E-2,9.847950935E0
4.065244165E0,1.969500035E-1,-7.304999977E-2,9.838950157E0
4.067744702E0,1.920000017E-1,-7.605000585E-2,9.853050232E0
4.070245089E0,1.990500093E-1,-7.995000482E-2,9.825000763E0
4.072745625E0,2.260500044E-1,-7.995000482E-2,9.835950851E0
4.075245935E0,2.160000056E-1,-7.800000161E-2,9.841050148E0
4.077746317E0,2.140500098E-1,-6.105000153E-2,9.853050232E0
4.080246871E0,2.040000111E-1,-5.700000376E-2,9.853050232E0
4.082747257E0,2.020500153E-1,-4.905000329E-2,9.847950935E0
4.085247794E0,1.900500059E-1,-5.205000192E-2,9.846000671E0
4.087748180E0,1.920000017E-1,-4.905000329E-2,9.814950943E0
4.090248712E0,1.920000017E-1,-3.299999982E-2,9.841050148E0
4.092749099E0,1.710000038E-1,-2.100000158E-2,9.847950935E0
4.095249635E0,1.849500090E-1,-1.800000109E-2,9.856050491E0
4.097750022E0,2.089500129E-1,-1.305000018E-2,9.858000755E0
4.100250544E0,2.190000117E-1,1.005000062E-2,9.859950066E0
4.102750854E0,1.969500035E-1,7.050000131E-3,9.838950157E0
4.105251467E0,1.950000077E-1,-6.000000052E-3,9.835950851E0
4.107751777E0,2.310000062E-1,-6.000000052E-3,9.844050407E0
4.110252399E0,2.190000117E-1,1.695000008E-2,9.850950241E0
4.112752709E0,2.260500044E-1,3.299999982E-2,9.846000671E0
4.115253322E0,2.520000041E-1,4.095000029E-2,9.853050232E0
4.117753632E0,2.380500138E-1,5.505000427E-2,9.846000671E0
4.120254245E0,2.350500077E-1,5.295000225E-2,9.834000587E0
4.122754575E0,2.520000041E-1,5.700000376E-2,9.835950851E0
4.125254960E0,2.449500114E-1,4.500000179E-2,9.834000587E0
4.127755496E0,2.500500083E-1,8.100000024E-2,9.834000587E0
4.130255883E0,2.350500077E-1,8.595000207E-2,9.847950935E0
4.132756433E0,2.620500028E-1,6.705000252E-2,9.844050407E0
4.135256820E0,2.470500171E-1,7.905000448E-2,9.846000671E0
4.137757356E0,2.350500077E-1,1.030500084E-1,9.832050323E0
4.140257743E0,2.140500098E-1,9.300000221E-2,9.825000763E0
4.142758280E0,2.260500044E-1,9.300000221E-2,9.841050148E0
4.145258603E0,2.140500098E-1,7.395000011E-2,9.846000671E0
4.147758986E0,2.280000150E-1,1.009500027E-1,9.850950241E0
4.150259524E0,2.449500114E-1,1.200000048E-1,9.858000755E0
4.152759911E0,2.230500132E-1,1.219500080E-1,9.858000755E0
4.155260467E0,2.350500077E-1,1.120500043E-1,9.838950157E0
4.157760854E0,2.190000117E-1,9.795000404E-2,9.829050064E0
4.160261390E0,2.280000150E-1,1.150500029E-1,9.838950157E0
4.162761777E0,2.310000062E-1,1.099500060E-1,9.829050064E0
4.165262328E0,2.280000150E-1,1.030500084E-1,9.853050232E0
4.167762714E0,2.550000250E-1,1.120500043E-1,9.870000839E0
4.170263022E0,2.470500171E-1,1.170000061E-1,9.859950066E0
4.172763635E0,2.470500171E-1,9.600000083E-2,9.846000671E0
4.175263935E0,2.449500114E-1,9.795000404E-2,9.838950157E0
4.177764548E0,2.430000156E-1,1.099500060E-1,9.820050240E0
4.180264858E0,2.590500116E-1,1.030500084E-1,9.825000763E0
4.182765471E0,2.470500171E-1,1.170000061E-1,9.817050934E0
4.185265781E0,2.689500153E-1,1.270500124E-1,9.838950157E0
4.187766410E0,2.740500271E-1,1.219500080E-1,9.862950325E0
4.190266719E0,2.590500116E-1,1.200000048E-1,9.858000755E0
4.192767256E0,2.689500153E-1,1.319999993E-1,9.841050148E0
4.195267642E0,2.689500153E-1,1.390500069E-1,9.844050407E0
4.197768179E0,2.689500153E-1,1.099500060E-1,9.817050934E0
4.200268565E0,2.929500043E-1,1.200000048E-1,9.838950157E0
4.202769102E0,2.860500216E-1,1.290000081E-1,9.841050148E0
4.205269489E0,2.899500132E-1,1.219500080E-1,9.858000755E0
4.207770025E0,3.120000064E-1,1.360500008E-1,9.838950157E0
4.210270412E0,2.689500153E-1,1.270500124E-1,9.835950851E0
4.212770943E0,2.779500186E-1,1.390500069E-1,9.834000587E0
4.215271253E0,2.950500250E-1,1.150500029E-1,9.856050491E0
4.217771635E0,2.929500043E-1,1.290000081E-1,9.844050407E0
4.220272174E0,2.830500007E-1,1.240500063E-1,9.853050232E0
4.222772555E0,2.760000229E-1,1.390500069E-1,9.856050491E0
4.225273092E0,2.569500208E-1,1.459500045E-1,9.838950157E0
4.227773479E0,2.400000095E-1,1.530000120E-1,9.838950157E0
4.230274015E0,2.089500129E-1,1.410000026E-1,9.832050323E0
4.232774402E0,1.920000017E-1,1.440000087E-1,9.844050407E0
4.235274938E0,1.950000077E-1,1.459500045E-1,9.844050407E0
4.237775325E0,1.780500114E-1,1.630500108E-1,9.847950935E0
4.240275861E0,1.759500057E-1,1.579500139E-1,9.858000755E0
4.242776160E0,1.519500017E-1,1.510500014E-1,9.859950066E0
4.245276773E0,1.560000032E-1,1.240500063E-1,9.841050148E0
4.247777083E0,1.560000032E-1,1.319999993E-1,9.838950157E0
4.250277696E0,1.420500129E-1,1.440000087E-1,9.847950935E0
4.252778006E0,1.660500020E-1,1.290000081E-1,9.847950935E0
4.255278638E0,1.759500057E-1,1.360500008E-1,9.847950935E0
4.257778948E0,2.040000111E-1,1.050000042E-1,9.853050232E0
4.260279333E0,1.969500035E-1,1.099500060E-1,9.858000755E0
4.262779869E0,2.020500153E-1,1.120500043E-1,9.858000755E0
4.265280247E0,2.140500098E-1,1.050000042E-1,9.847950935E0
4.267780783E0,2.110500038E-1,1.009500027E-1,9.826950073E0
4.270281170E0,2.190000117E-1,8.100000024E-2,9.829050064E0
4.272781706E0,2.470500171E-1,8.400000632E-2,9.846000671E0
4.275282083E0,2.569500208E-1,8.895000070E-2,9.856050491E0
4.277782620E0,2.590500116E-1,7.395000011E-2,9.835950851E0
4.280283006E0,2.550000250E-1,8.595000207E-2,9.841050148E0
4.282783543E0,2.710500062E-1,7.905000448E-2,9.829050064E0
4.285283852E0,2.569500208E-1,6.195000187E-2,9.829050064E0
4.287784235E0,2.569500208E-1,5.295000225E-2,9.834000587E0
4.290284773E0,2.740500271E-1,4.305000231E-2,9.856050491E0
4.292785160E0,2.860500216E-1,4.095000029E-2,9.850950241E0
4.295285697E0,3.049500287E-1,2.895000204E-2,9.862950325E0
4.297786073E0,2.980500162E-1,0.000000000E0,9.846000671E0
4.300286610E0,3.169500232E-1,4.950000439E-3,9.826950073E0
4.302786996E0,3.019500077E-1,-1.605000161E-2,9.835950851E0
4.305287533E0,3.240000010E-1,-9.000000544E-3,9.838950157E0
4.307787924E0,3.360000253E-1,-2.100000158E-2,9.846000671E0
4.310288461E0,3.529500067E-1,-1.605000161E-2,9.841050148E0
4.312788847E0,3.379500210E-1,-1.305000018E-2,9.841050148E0
4.315289384E0,3.259500265E-1,-2.295000106E-2,9.850950241E0
4.317789770E0,3.499500155E-1,-2.505000122E-2,9.844050407E0
4.320290078E0,3.480000198E-1,-3.705000132E-2,9.820050240E0
4.322790615E0,3.240000010E-1,-1.800000109E-2,9.808050156E0
4.325291001E0,3.139500022E-1,-1.095000096E-2,9.817050934E0
4.327791533E0,3.019500077E-1,-2.295000106E-2,9.838950157E0
4.330291919E0,2.860500216E-1,-2.505000122E-2,9.850950241E0
4.332792456E0,2.929500043E-1,-3.495000303E-2,9.853050232E0
4.335292842E0,2.500500083E-1,-2.805000171E-2,9.844050407E0
4.337793355E0,2.160000056E-1,-3.495000303E-2,9.841050148E0
4.340293742E0,1.780500114E-1,-3.000000119E-2,9.835950851E0
4.342794278E0,1.639500111E-1,-4.695000127E-2,9.846000671E0
4.345294665E0,1.609500051E-1,-4.905000329E-2,9.844050407E0
4.347795201E0,1.230000034E-1,-5.700000376E-2,9.847950935E0
4.350295588E0,1.009500027E-1,-6.405000389E-2,9.870000839E0
4.352796124E0,9.405000508E-2,-5.205000192E-2,9.844050407E0
4.355296511E0,9.195000678E-2,-5.205000192E-2,9.856050491E0
4.357796819E0,8.700000495E-2,-4.905000329E-2,9.853050232E0
4.360297346E0,7.695000619E-2,-7.095000148E-2,9.844050407E0
4.362797733E0,7.995000482E-2,-5.400000140E-2,9.856050491E0
4.365298269E0,6.105000153E-2,-5.700000376E-2,9.877050400E0
4.367798656E0,3.900000080E-2,-5.895000324E-2,9.856050491E0
4.370299177E0,3.405000269E-2,-5.205000192E-2,9.868050575E0
4.372799564E0,1.800000109E-2,-5.895000324E-2,9.846000671E0
4.375300100E0,1.995000057E-2,-4.905000329E-2,9.850950241E0
4.377800487E0,6.000000052E-3,-4.500000179E-2,9.858000755E0
4.380301023E0,1.500000060E-2,-2.805000171E-2,9.856050491E0
4.382801415E0,7.950000465E-3,-4.500000179E-2,9.870000839E0
4.385301951E0,-4.950000439E-3,-4.905000329E-2,9.870000839E0
4.387802338E0,-1.305000018E-2,-2.805000171E-2,9.859950066E0
4.390302646E0,3.000000026E-3,-3.000000119E-2,9.844050407E0
4.392803196E0,1.500000060E-2,0.000000000E0,9.846000671E0
4.395303583E0,1.500000060E-2,-2.505000122E-2,9.850950241E0
4.397804119E0,1.995000057E-2,-2.295000106E-2,9.847950935E0
4.400304506E0,4.605000094E-2,-2.100000158E-2,9.856050491E0
4.402805042E0,4.905000329E-2,-1.050000079E-3,9.859950066E0
4.405305429E0,7.695000619E-2,-6.000000052E-3,9.868050575E0
4.407805965E0,9.405000508E-2,0.000000000E0,9.841050148E0
4.410306352E0,9.405000508E-2,-9.000000544E-3,9.835950851E0
4.412806885E0,1.110000089E-1,1.695000008E-2,9.847950935E0
4.415307271E0,1.110000089E-1,-1.050000079E-3,9.847950935E0
4.417807808E0,1.519500017E-1,0.000000000E0,9.846000671E0
4.420308194E0,1.399500072E-1,7.050000131E-3,9.856050491E0
4.422808697E0,1.399500072E-1,0.000000000E0,9.853050232E0
4.425309083E0,1.249500066E-1,0.000000000E0,9.853050232E0
4.427809620E0,1.159500033E-1,1.695000008E-2,9.846000671E0
4.430309930E0,1.279500127E-1,1.005000062E-2,9.838950157E0
4.432810312E0,1.230000034E-1,1.395000052E-2,9.846000671E0
4.435310865E0,1.180500090E-1,1.905000024E-2,9.850950241E0
4.437811251E0,1.230000034E-1,1.695000008E-2,9.856050491E0
4.440311788E0,1.129500046E-1,1.905000024E-2,9.862950325E0
4.442812174E0,1.180500090E-1,1.005000062E-2,9.862950325E0
4.445312740E0,1.200000048E-1,2.400000021E-2,9.850950241E0
4.447813126E0,1.279500127E-1,1.695000008E-2,9.844050407E0
4.450313663E0,1.319999993E-1,3.600000218E-2,9.835950851E0
4.452813973E0,1.350000054E-1,5.505000427E-2,9.838950157E0
4.455314369E0,1.469999999E-1,6.195000187E-2,9.850950241E0
4.457814908E0,1.469999999E-1,4.305000231E-2,9.856050491E0
4.460315294E0,1.440000087E-1,4.305000231E-2,9.846000671E0
4.462815831E0,1.660500020E-1,7.200000435E-2,9.846000671E0
4.465316193E0,1.560000032E-1,8.400000632E-2,9.846000671E0
4.467816730E0,1.369500011E-1,8.400000632E-2,9.858000755E0
4.470317116E0,1.399500072E-1,7.695000619E-2,9.844050407E0
4.472817653E0,1.660500020E-1,9.600000083E-2,9.838950157E0
4.475318040E0,1.590000093E-1,1.080000028E-1,9.862950325E0
4.477818552E0,1.469999999E-1,1.290000081E-1,9.847950935E0
4.480318939E0,1.369500011E-1,1.240500063E-1,9.865050316E0
4.482819475E0,1.319999993E-1,1.410000026E-1,9.844050407E0
4.485319862E0,1.230000034E-1,1.440000087E-1,9.844050407E0
4.487820408E0,1.129500046E-1,1.319999993E-1,9.844050407E0
4.490320795E0,1.230000034E-1,1.530000120E-1,9.858000755E0
4.492821331E0,1.200000048E-1,1.410000026E-1,9.850950241E0
4.495321718E0,1.230000034E-1,1.680000126E-1,9.850950241E0
4.497822230E0,1.300500035E-1,1.720500141E-1,9.847950935E0
4.500322540E0,1.230000034E-1,1.680000126E-1,9.844050407E0
4.502822923E0,1.369500011E-1,1.720500141E-1,9.847950935E0
4.505323461E0,1.300500035E-1,1.750500053E-1,9.853050232E0
4.507823877E0,1.660500020E-1,1.800000072E-1,9.844050407E0
4.510324413E0,1.639500111E-1,1.680000126E-1,9.853050232E0
4.512824800E0,1.879500151E-1,1.770000011E-1,9.846000671E0
4.515325336E0,1.780500114E-1,1.770000011E-1,9.850950241E0
4.517825727E0,1.800000072E-1,1.699500084E-1,9.838950157E0
4.520326263E0,1.969500035E-1,1.800000072E-1,9.822000504E0
4.522826573E0,1.830000132E-1,1.630500108E-1,9.826950073E0
4.525326956E0,1.990500093E-1,1.600500047E-1,9.829050064E0
4.527827499E0,2.310000062E-1,1.699500084E-1,9.850950241E0
4.530327886E0,2.260500044E-1,1.440000087E-1,9.847950935E0
4.532828422E0,2.569500208E-1,1.390500069E-1,9.853050232E0
4.535328809E0,2.779500186E-1,1.579500139E-1,9.846000671E0
4.537829345E0,2.710500062E-1,1.510500014E-1,9.844050407E0
4.540329756E0,2.710500062E-1,1.390500069E-1,9.826950073E0
4.542830292E0,3.070500195E-1,1.290000081E-1,9.834000587E0
4.545330679E0,3.259500265E-1,1.390500069E-1,9.834000587E0
4.547831216E0,3.649500310E-1,1.150500029E-1,9.834000587E0
4.550331578E0,3.739500046E-1,1.050000042E-1,9.835950851E0
4.552832115E0,3.859500289E-1,1.170000061E-1,9.825000763E0
4.555332501E0,4.150500298E-1,9.600000083E-2,9.825000763E0
4.557833038E0,4.390500188E-1,8.100000024E-2,9.820050240E0
4.560333400E0,4.560000300E-1,8.100000024E-2,9.817050934E0
4.562833937E0,4.699500203E-1,4.800000042E-2,9.826950073E0
4.565334247E0,4.720500112E-1,4.095000029E-2,9.814950943E0
4.567834860E0,4.840500355E-1,3.105000220E-2,9.822000504E0
4.570335170E0,4.579500258E-1,2.895000204E-2,9.826950073E0
4.572835554E0,4.890000224E-1,3.299999982E-2,9.817050934E0
4.575336091E0,4.770000279E-1,-6.000000052E-3,9.813000679E0
4.577836477E0,4.680000246E-1,-4.050000105E-3,9.822000504E0
4.580337014E0,4.600500166E-1,-9.000000544E-3,9.829050064E0
4.582837411E0,4.510500133E-1,-9.000000544E-3,9.835950851E0
4.585337948E0,4.630500078E-1,-9.000000544E-3,9.832050323E0
4.587838335E0,4.480500221E-1,-4.050000105E-3,9.820050240E0
4.590338871E0,4.369500279E-1,-1.305000018E-2,9.846000671E0
4.592839190E0,4.200000167E-1,-2.100000158E-2,9.826950073E0
4.595339572E0,4.170000255E-1,4.950000439E-3,9.826950073E0
4.597840111E0,3.889500201E-1,-3.495000303E-2,9.822000504E0
4.600340497E0,3.930000067E-1,-1.095000096E-2,9.835950851E0
4.602841034E0,3.690000176E-1,-6.000000052E-3,9.835950851E0
4.605341415E0,3.790500164E-1,-4.050000105E-3,9.835950851E0
4.607841952E0,3.340500295E-1,-6.000000052E-3,9.832050323E0
4.610342339E0,3.220500052E-1,1.200000010E-2,9.838950157E0
4.612842875E0,2.830500007E-1,1.200000010E-2,9.829050064E0
4.615343248E0,2.689500153E-1,-1.050000079E-3,9.841050148E0
4.617843784E0,2.670000196E-1,4.305000231E-2,9.856050491E0
4.620344171E0,2.569500208E-1,3.105000220E-2,9.850950241E0
4.622844707E0,2.209500074E-1,5.700000376E-2,9.858000755E0
4.625345099E0,1.830000132E-1,6.705000252E-2,9.850950241E0
4.627845635E0,1.469999999E-1,9.105000645E-2,9.850950241E0
4.630346022E0,1.200000048E-1,7.695000619E-2,9.847950935E0
4.632846330E0,9.900000691E-2,9.600000083E-2,9.846000671E0
4.635346952E0,1.009500027E-1,1.099500060E-1,9.846000671E0
4.637847262E0,8.700000495E-2,1.120500043E-1,9.871950150E0
4.640347798E0,5.805000290E-2,1.319999993E-1,9.858000755E0
4.642848185E0,3.900000080E-2,1.440000087E-1,9.858000755E0
4.645348721E0,1.050000079E-3,1.480500102E-1,9.856050491E0
4.647849108E0,-1.005000062E-2,1.290000081E-1,9.832050323E0
4.650349644E0,-2.505000122E-2,1.360500008E-1,9.844050407E0
4.652850031E0,-4.605000094E-2,1.319999993E-1,9.870000839E0
4.655350543E0,-2.205000073E-2,1.290000081E-1,9.859950066E0
4.657850930E0,-3.405000269E-2,1.360500008E-1,9.862950325E0
4.660351467E0,-3.705000132E-2,1.200000048E-1,9.846000671E0
4.662851853E0,-6.000000238E-2,1.099500060E-1,9.868050575E0
4.665352161E0,-4.095000029E-2,1.080000028E-1,9.859950066E0
4.667852707E0,-3.705000132E-2,9.105000645E-2,9.850950241E0
4.670353094E0,-1.005000062E-2,7.200000435E-2,9.853050232E0
4.672853630E0,1.005000062E-2,7.905000448E-2,9.862950325E0
4.675354017E0,5.595000088E-2,6.900000572E-2,9.870000839E0
4.677854554E0,3.900000080E-2,5.295000225E-2,9.856050491E0
4.680354940E0,1.800000109E-2,3.600000218E-2,9.856050491E0
4.682855477E0,2.700000070E-2,2.205000073E-2,9.850950241E0
4.685355863E0,7.005000114E-2,1.905000024E-2,9.850950241E0
4.687856390E0,7.995000482E-2,7.050000131E-3,9.835950851E0
4.690356776E0,8.700000495E-2,1.950000064E-3,9.862950325E0
4.692857313E0,1.039500013E-1,-4.050000105E-3,9.858000755E0
4.695357699E0,9.900000691E-2,-2.100000158E-2,9.856050491E0
4.697858002E0,1.039500013E-1,-6.000000052E-3,9.846000671E0
4.700358615E0,1.110000089E-1,-9.000000544E-3,9.834000587E0
4.702858925E0,9.900000691E-2,-1.800000109E-2,9.834000587E0
4.705359462E0,1.039500013E-1,-4.500000179E-2,9.862950325E0
4.707859853E0,1.129500046E-1,-4.005000368E-2,9.856050491E0
4.710360390E0,1.399500072E-1,-3.000000119E-2,9.868050575E0
4.712860776E0,1.110000089E-1,-3.705000132E-2,9.856050491E0
4.715361313E0,9.405000508E-2,-1.800000109E-2,9.838950157E0
4.717861714E0,9.195000678E-2,-2.100000158E-2,9.865050316E0
4.720362251E0,8.895000070E-2,-2.100000158E-2,9.835950851E0
4.722862638E0,1.060500070E-1,-3.299999982E-2,9.856050491E0
4.725363174E0,1.249500066E-1,-3.705000132E-2,9.882000923E0
4.727863561E0,1.060500070E-1,-1.605000161E-2,9.858000755E0
4.730364121E0,1.039500013E-1,-6.000000052E-3,9.862950325E0
4.732864508E0,1.230000034E-1,1.005000062E-2,9.870000839E0
4.735364815E0,9.900000691E-2,1.005000062E-2,9.844050407E0
4.737865352E0,9.900000691E-2,-1.305000018E-2,9.838950157E0
4.740365723E0,7.995000482E-2,0.000000000E0,9.829050064E0
4.742866260E0,1.009500027E-1,-1.095000096E-2,9.846000671E0
4.745366647E0,1.159500033E-1,-1.305000018E-2,9.862950325E0
4.747867183E0,1.369500011E-1,-1.305000018E-2,9.858000755E0
4.750367560E0,1.350000054E-1,-1.050000079E-3,9.847950935E0
4.752868096E0,1.180500090E-1,7.050000131E-3,9.850950241E0
4.755368483E0,1.009500027E-1,-2.100000158E-2,9.832050323E0
4.757869019E0,1.519500017E-1,-9.000000544E-3,9.835950851E0
4.760369401E0,1.729500145E-1,-1.095000096E-2,9.841050148E0
4.762869937E0,1.879500151E-1,-1.095000096E-2,9.856050491E0
4.765370247E0,2.040000111E-1,-2.100000158E-2,9.865050316E0
4.767870860E0,2.070000172E-1,-1.305000018E-2,9.858000755E0
4.770371170E0,2.089500129E-1,-1.305000018E-2,9.841050148E0
4.772871778E0,2.160000056E-1,-9.000000544E-3,9.847950935E0
4.775372088E0,2.550000250E-1,-9.000000544E-3,9.820050240E0
4.777872702E0,2.639999986E-1,-6.000000052E-3,9.844050407E0
4.780373011E0,2.590500116E-1,-4.050000105E-3,9.847950935E0
4.782873396E0,2.689500153E-1,7.050000131E-3,9.850950241E0
4.785373932E0,2.830500007E-1,7.050000131E-3,9.829050064E0
4.787874319E0,2.880000174E-1,1.005000062E-2,9.835950851E0
4.790374855E0,2.830500007E-1,2.400000021E-2,9.844050407E0
4.792875242E0,2.899500132E-1,1.695000008E-2,9.829050064E0
4.795375788E0,2.950500250E-1,1.695000008E-2,9.820050240E0
4.797876174E0,3.310500085E-1,1.695000008E-2,9.846000671E0
4.800376711E0,3.259500265E-1,3.105000220E-2,9.853050232E0
4.802877097E0,3.259500265E-1,3.105000220E-2,9.841050148E0
4.805377634E0,3.100500107E-1,4.095000029E-2,9.838950157E0
4.807877929E0,3.019500077E-1,3.105000220E-2,9.832050323E0
4.810378312E0,3.019500077E-1,3.299999982E-2,9.825000763E0
4.812878851E0,3.120000064E-1,3.795000166E-2,9.817050934E0
4.815379237E0,3.190500140E-1,5.295000225E-2,9.832050323E0
4.817879774E0,3.360000253E-1,7.200000435E-2,9.862950325E0
4.820380160E0,3.360000253E-1,6.705000252E-2,9.826950073E0
4.822880697E0,3.100500107E-1,8.595000207E-2,9.844050407E0
4.825381083E0,3.259500265E-1,9.300000221E-2,9.826950073E0
4.827881634E0,3.139500022E-1,9.300000221E-2,9.826950073E0
4.830382020E0,3.240000010E-1,8.100000024E-2,9.826950073E0
4.832882328E0,3.360000253E-1,1.050000042E-1,9.829050064E0
4.835382941E0,3.480000198E-1,9.105000645E-2,9.835950851E0
4.837883251E0,3.240000010E-1,1.080000028E-1,9.844050407E0
4.840383865E0,3.259500265E-1,8.400000632E-2,9.844050407E0
4.842884174E0,3.190500140E-1,9.300000221E-2,9.835950851E0
4.845384788E0,2.929500043E-1,7.905000448E-2,9.822000504E0
4.847885097E0,3.000000119E-1,8.400000632E-2,9.825000763E0
4.850385697E0,3.310500085E-1,6.495000422E-2,9.829050064E0
4.852886006E0,3.120000064E-1,5.505000427E-2,9.844050407E0
4.855386543E0,3.000000119E-1,6.000000238E-2,9.846000671E0
4.857886930E0,2.830500007E-1,4.095000029E-2,9.856050491E0
4.860387471E0,3.000000119E-1,4.500000179E-2,9.832050323E0
4.862887858E0,2.740500271E-1,4.095000029E-2,9.817050934E0
4.865388394E0,2.950500250E-1,4.995000362E-2,9.826950073E0
4.867888781E0,2.860500216E-1,1.695000008E-2,9.835950851E0
4.870389326E0,2.980500162E-1,2.595000155E-2,9.835950851E0
4.872889713E0,2.880000174E-1,1.005000062E-2,9.853050232E0
4.875390021E0,2.860500216E-1,3.600000218E-2,9.841050148E0
4.877890634E0,2.809500098E-1,4.305000231E-2,9.835950851E0
4.880390915E0,2.550000250E-1,2.205000073E-2,9.834000587E0
4.882891451E0,2.449500114E-1,4.500000179E-2,9.826950073E0
4.885391838E0,2.550000250E-1,3.105000220E-2,9.832050323E0
4.887892374E0,2.569500208E-1,1.395000052E-2,9.835950851E0
4.890392761E0,2.550000250E-1,7.050000131E-3,9.868050575E0
4.892893307E0,2.550000250E-1,4.950000439E-3,9.853050232E0
4.895393694E0,2.430000156E-1,2.400000021E-2,9.832050323E0
4.897894230E0,2.380500138E-1,1.200000010E-2,9.825000763E0
4.900394617E0,2.260500044E-1,2.400000021E-2,9.841050148E0
4.902895158E0,2.400000095E-1,1.695000008E-2,9.834000587E0
4.905395468E0,2.400000095E-1,1.005000062E-2,9.841050148E0
4.907896082E0,2.380500138E-1,1.200000010E-2,9.847950935E0
4.910396391E0,2.430000156E-1,2.895000204E-2,9.853050232E0
4.912897029E0,2.230500132E-1,2.595000155E-2,9.847950935E0
4.915397338E0,2.160000056E-1,2.895000204E-2,9.826950073E0
4.917897723E0,2.040000111E-1,3.795000166E-2,9.822000504E0
4.920398259E0,2.140500098E-1,5.295000225E-2,9.832050323E0
4.922898646E0,2.160000056E-1,4.500000179E-2,9.834000587E0
4.925399182E0,2.040000111E-1,5.700000376E-2,9.835950851E0
4.927899569E0,1.990500093E-1,5.295000225E-2,9.865050316E0
4.930400106E0,1.900500059E-1,4.800000042E-2,9.865050316E0
4.932900473E0,1.519500017E-1,6.000000238E-2,9.841050148E0
4.935401010E0,1.420500129E-1,5.700000376E-2,9.826950073E0
4.937901319E0,1.249500066E-1,4.305000231E-2,9.846000671E0
4.940401933E0,1.129500046E-1,3.299999982E-2,9.853050232E0
4.942902242E0,1.110000089E-1,3.600000218E-2,9.846000671E0
4.945402846E0,1.009500027E-1,1.950000064E-3,9.858000755E0
4.947903156E0,8.505000174E-2,1.005000062E-2,9.870000839E0
4.950403769E0,6.795000285E-2,-6.000000052E-3,9.853050232E0
4.952904079E0,5.100000277E-2,-6.000000052E-3,9.856050491E0
4.955404463E0,4.095000029E-2,4.950000439E-3,9.850950241E0
4.957905014E0,5.595000088E-2,-1.095000096E-2,9.841050148E0
4.960405400E0,5.805000290E-2,-2.505000122E-2,9.847950935E0
4.962905937E0,3.405000269E-2,-2.505000122E-2,9.865050316E0
4.965406323E0,3.405000269E-2,-1.095000096E-2,9.858000755E0
4.967906851E0,3.195000067E-2,-3.495000303E-2,9.865050316E0
4.970407238E0,3.195000067E-2,-3.705000132E-2,9.841050148E0
4.972907774E0,3.000000119E-2,-6.105000153E-2,9.844050407E0
4.975408161E0,3.900000080E-2,-6.105000153E-2,9.838950157E0
4.977908487E0,7.500000298E-2,-7.304999977E-2,9.835950851E0
4.980409101E0,4.605000094E-2,-7.095000148E-2,9.865050316E0
4.982909410E0,4.905000329E-2,-6.405000389E-2,9.874950409E0
4.985409947E0,5.595000088E-2,-8.295000345E-2,9.870000839E0
4.987910333E0,7.005000114E-2,-8.295000345E-2,9.858000755E0
4.990410884E0,6.300000101E-2,-1.090500057E-1,9.853050232E0
4.992911271E0,9.195000678E-2,-1.140000075E-1,9.841050148E0
4.995411807E0,8.505000174E-2,-1.140000075E-1,9.870000839E0
4.997912194E0,7.995000482E-2,-1.140000075E-1,9.862950325E0
5.000412745E0,7.695000619E-2,-1.140000075E-1,9.868050575E0
5.002913132E0,6.105000153E-2,-1.189500093E-1,9.868050575E0
5.005413668E0,7.695000619E-2,-8.805000782E-2,9.859950066E0
5.007914055E0,5.595000088E-2,-9.195000678E-2,9.834000587E0
5.010414382E0,5.595000088E-2,-7.605000585E-2,9.846000671E0
5.012914995E0,4.905000329E-2,-6.599999964E-2,9.853050232E0
5.015415305E0,5.295000225E-2,-5.895000324E-2,9.856050491E0
5.017915918E0,5.100000277E-2,-5.700000376E-2,9.862950325E0
5.020416228E0,4.395000264E-2,-2.805000171E-2,9.862950325E0
5.022916855E0,4.095000029E-2,-9.000000544E-3,9.853050232E0
5.025417165E0,3.195000067E-2,-6.000000052E-3,9.835950851E0
5.027917701E0,2.205000073E-2,-1.095000096E-2,9.856050491E0
5.030418088E0,3.195000067E-2,-1.800000109E-2,9.859950066E0
5.032918639E0,3.900000080E-2,-2.295000106E-2,9.856050491E0
5.035419026E0,4.095000029E-2,-2.805000171E-2,9.865050316E0
5.037919562E0,3.000000119E-2,-4.050000105E-3,9.877050400E0
5.040419949E0,4.095000029E-2,-1.605000161E-2,9.856050491E0
5.042920486E0,4.605000094E-2,-9.000000544E-3,9.858000755E0
5.045420872E0,6.300000101E-2,1.950000064E-3,9.856050491E0
5.047921409E0,7.304999977E-2,-9.000000544E-3,9.856050491E0
5.050421718E0,8.895000070E-2,-2.505000122E-2,9.847950935E0
5.052922129E0,9.900000691E-2,-2.100000158E-2,9.868050575E0
5.055422667E0,1.060500070E-1,-2.295000106E-2,9.880050659E0
5.057923054E0,1.129500046E-1,-2.100000158E-2,9.856050491E0
5.060423590E0,1.519500017E-1,-3.299999982E-2,9.829050064E0
5.062923982E0,1.560000032E-1,-2.295000106E-2,9.825000763E0
5.065424519E0,1.540500075E-1,-4.905000329E-2,9.835950851E0
5.067924905E0,1.830000132E-1,-4.005000368E-2,9.834000587E0
5.070425442E0,1.900500059E-1,-2.805000171E-2,9.847950935E0
5.072925819E0,2.089500129E-1,-1.095000096E-2,9.850950241E0
5.075426356E0,2.089500129E-1,-2.505000122E-2,9.846000671E0
5.077926742E0,2.160000056E-1,-2.805000171E-2,9.834000587E0
5.080427279E0,2.160000056E-1,-3.495000303E-2,9.832050323E0
5.082927665E0,2.329500169E-1,-2.100000158E-2,9.838950157E0
5.085428202E0,2.280000150E-1,-1.800000109E-2,9.853050232E0
5.087928512E0,2.190000117E-1,-3.495000303E-2,9.841050148E0
5.090429125E0,2.329500169E-1,-2.805000171E-2,9.850950241E0
5.092929455E0,2.329500169E-1,-2.100000158E-2,9.862950325E0
5.095429839E0,2.260500044E-1,-2.805000171E-2,9.853050232E0
5.097930376E0,2.230500132E-1,-3.000000119E-2,9.841050148E0
5.100430762E0,2.040000111E-1,-2.100000158E-2,9.832050323E0
5.102931299E0,2.070000172E-1,-2.100000158E-2,9.835950851E0
5.105431700E0,2.310000062E-1,-6.000000052E-3,9.835950851E0
5.107932236E0,2.310000062E-1,0.000000000E0,9.850950241E0
5.110432623E0,2.020500153E-1,1.905000024E-2,9.862950325E0
5.112933159E0,1.990500093E-1,2.400000021E-2,9.853050232E0
5.115433570E0,1.920000017E-1,3.105000220E-2,9.835950851E0
5.117934106E0,1.900500059E-1,2.895000204E-2,9.810000420E0
5.120434493E0,1.900500059E-1,3.795000166E-2,9.844050407E0
5.122935029E0,2.020500153E-1,5.295000225E-2,9.844050407E0
5.125435339E0,2.089500129E-1,5.700000376E-2,9.844050407E0
5.127935722E0,2.070000172E-1,7.695000619E-2,9.871950150E0
5.130436260E0,2.230500132E-1,7.695000619E-2,9.847950935E0
5.132936647E0,2.400000095E-1,8.400000632E-2,9.841050148E0
5.135437183E0,2.190000117E-1,6.000000238E-2,9.834000587E0
5.137937584E0,2.310000062E-1,8.400000632E-2,9.838950157E0
5.140438120E0,2.500500083E-1,9.105000645E-2,9.838950157E0
5.142938507E0,2.639999986E-1,8.400000632E-2,9.858000755E0
5.145439043E0,2.620500028E-1,1.009500027E-1,9.858000755E0
5.147939435E0,2.670000196E-1,9.300000221E-2,9.838950157E0
5.150439971E0,2.740500271E-1,9.300000221E-2,9.838950157E0
