"Time (s)","Gyroscope x (rad/s)","Gyroscope y (rad/s)","Gyroscope z (rad/s)"
1.270373910E-1,-2.199999988E-3,-5.499999970E-4,-5.266249925E-2
1.295379280E-1,-1.374999993E-4,-5.499999970E-4,-5.376249924E-2
1.320383140E-1,-1.099999994E-3,-5.499999970E-4,-5.582499877E-2
1.345388550E-1,-1.099999994E-3,-2.612499986E-3,-5.582499877E-2
1.370392410E-1,-1.374999993E-4,5.499999970E-4,-5.692499876E-2
1.395397780E-1,-1.374999993E-4,-1.649999991E-3,-5.898749828E-2
1.420400870E-1,-1.099999994E-3,5.499999970E-4,-6.118749827E-2
1.445407060E-1,-1.374999993E-4,-1.649999991E-3,-6.118749827E-2
1.470410160E-1,-1.099999994E-3,5.499999970E-4,-6.435000151E-2
1.495414000E-1,-2.199999988E-3,5.499999970E-4,-6.228749827E-2
1.520419370E-1,-1.374999993E-4,-1.649999991E-3,-6.324999779E-2
1.545423230E-1,-1.374999993E-4,-5.499999970E-4,-6.544999778E-2
1.570428750E-1,-2.199999988E-3,5.499999970E-4,-6.751249731E-2
1.595432610E-1,-1.099999994E-3,5.499999970E-4,-6.655000150E-2
1.620437980E-1,-1.099999994E-3,-1.649999991E-3,-6.751249731E-2
1.645441840E-1,-2.199999988E-3,5.499999970E-4,-6.655000150E-2
1.670447160E-1,-1.099999994E-3,-1.649999991E-3,-6.435000151E-2
1.695451030E-1,-1.099999994E-3,5.499999970E-4,-6.435000151E-2
1.720456390E-1,-1.099999994E-3,-2.612499986E-3,-6.118749827E-2
1.745459490E-1,-1.099999994E-3,-5.499999970E-4,-6.118749827E-2
1.770463310E-1,-1.099999994E-3,-5.499999970E-4,-6.008749828E-2
1.795468700E-1,-1.099999994E-3,-5.499999970E-4,-5.582499877E-2
1.820472560E-1,-1.374999993E-4,-1.649999991E-3,-5.266249925E-2
1.845477930E-1,-1.099999994E-3,-5.499999970E-4,-5.156249925E-2
1.870481790E-1,-1.099999994E-3,5.499999970E-4,-4.839999974E-2
1.895484870E-1,-1.374999993E-4,-5.499999970E-4,-4.523750022E-2
1.920490240E-1,-1.099999994E-3,5.499999970E-4,-4.413750023E-2
1.945494100E-1,-1.099999994E-3,5.499999970E-4,-4.207500070E-2
1.970499470E-1,-1.374999993E-4,5.499999970E-4,-4.097500071E-2
1.995503370E-1,9.624999948E-4,-5.499999970E-4,-3.781250119E-2
2.020508740E-1,-1.099999994E-3,1.649999991E-3,-3.451250121E-2
2.045512600E-1,9.624999948E-4,5.499999970E-4,-3.244999796E-2
2.070517970E-1,-1.374999993E-4,-5.499999970E-4,-2.928750031E-2
2.095521520E-1,-1.099999994E-3,-5.499999970E-4,-2.612499893E-2
2.120526880E-1,9.624999948E-4,5.499999970E-4,-2.076249942E-2
2.145530750E-1,-1.099999994E-3,5.499999970E-4,-1.966249943E-2
2.170536110E-1,-1.374999993E-4,-1.649999991E-3,-1.539999992E-2
2.195540110E-1,9.624999948E-4,5.499999970E-4,-9.074999951E-3
2.220545470E-1,-1.374999993E-4,1.649999991E-3,-6.874999963E-3
2.245548570E-1,-1.099999994E-3,-5.499999970E-4,-5.499999970E-4
2.270552400E-1,9.624999948E-4,-1.649999991E-3,2.612499986E-3
2.295557780E-1,-1.374999993E-4,1.649999991E-3,4.812499974E-3
2.320561650E-1,-1.374999993E-4,1.649999991E-3,9.074999951E-3
2.345567010E-1,3.162499983E-3,5.499999970E-4,1.443750039E-2
2.370570880E-1,9.624999948E-4,-1.649999991E-3,1.966249943E-2
2.395576240E-1,-1.374999993E-4,5.499999970E-4,2.076249942E-2
2.420580160E-1,-1.374999993E-4,-5.499999970E-4,2.392499894E-2
2.445585520E-1,9.624999948E-4,-1.649999991E-3,2.392499894E-2
2.470589390E-1,-1.374999993E-4,1.649999991E-3,2.818750031E-2
2.495594750E-1,9.624999948E-4,1.649999991E-3,3.244999796E-2
2.520598620E-1,9.624999948E-4,-5.499999970E-4,3.464999795E-2
2.545601560E-1,9.624999948E-4,-1.649999991E-3,3.671250120E-2
2.570606920E-1,3.162499983E-3,5.499999970E-4,3.987500072E-2
2.595610790E-1,-1.374999993E-4,-5.499999970E-4,4.317500070E-2
2.620616150E-1,9.624999948E-4,5.499999970E-4,4.523750022E-2
2.645619730E-1,9.624999948E-4,1.649999991E-3,4.743750021E-2
2.670625090E-1,-1.374999993E-4,5.499999970E-4,5.156249925E-2
2.695628960E-1,2.062499989E-3,5.499999970E-4,5.376249924E-2
2.720632040E-1,9.624999948E-4,1.649999991E-3,5.692499876E-2
2.745637210E-1,9.624999948E-4,1.649999991E-3,5.912499875E-2
2.770641080E-1,2.062499989E-3,5.499999970E-4,6.008749828E-2
2.795646440E-1,2.062499989E-3,-1.649999991E-3,6.338749826E-2
2.820650310E-1,2.062499989E-3,5.499999970E-4,6.338749826E-2
2.845655670E-1,-1.099999994E-3,1.649999991E-3,6.435000151E-2
2.870659250E-1,2.062499989E-3,1.649999991E-3,6.338749826E-2
2.895664610E-1,2.062499989E-3,-5.499999970E-4,6.435000151E-2
2.920668480E-1,2.062499989E-3,5.499999970E-4,6.655000150E-2
2.945673840E-1,2.062499989E-3,5.499999970E-4,6.435000151E-2
2.970677810E-1,2.062499989E-3,5.499999970E-4,6.338749826E-2
2.995683180E-1,9.624999948E-4,5.499999970E-4,6.338749826E-2
3.020687040E-1,2.062499989E-3,1.649999991E-3,6.338749826E-2
3.045690120E-1,9.624999948E-4,5.499999970E-4,6.435000151E-2
3.070695420E-1,3.162499983E-3,-5.499999970E-4,6.435000151E-2
3.095699290E-1,2.062499989E-3,5.499999970E-4,6.228749827E-2
3.120704650E-1,9.624999948E-4,5.499999970E-4,6.118749827E-2
3.145708520E-1,2.062499989E-3,1.649999991E-3,6.008749828E-2
3.170713790E-1,9.624999948E-4,-5.499999970E-4,6.008749828E-2
3.195717660E-1,2.062499989E-3,5.499999970E-4,5.802499875E-2
3.220723030E-1,2.062499989E-3,2.612499986E-3,5.692499876E-2
3.245726120E-1,2.062499989E-3,-5.499999970E-4,5.486249924E-2
3.270729950E-1,3.162499983E-3,-1.649999991E-3,5.266249925E-2
3.295735330E-1,9.624999948E-4,-5.499999970E-4,4.839999974E-2
3.320739200E-1,3.162499983E-3,5.499999970E-4,4.743750021E-2
3.345744560E-1,9.624999948E-4,5.499999970E-4,4.413750023E-2
3.370748470E-1,9.624999948E-4,5.499999970E-4,4.097500071E-2
3.395753840E-1,9.624999948E-4,-5.499999970E-4,3.781250119E-2
3.420757700E-1,9.624999948E-4,-5.499999970E-4,3.464999795E-2
3.445763070E-1,9.624999948E-4,5.499999970E-4,2.928750031E-2
3.470766930E-1,2.062499989E-3,1.649999991E-3,2.612499893E-2
3.495771970E-1,2.062499989E-3,1.649999991E-3,2.186249942E-2
3.520775830E-1,9.624999948E-4,5.499999970E-4,1.966249943E-2
3.545778910E-1,-1.374999993E-4,-1.649999991E-3,1.649999991E-2
3.570784280E-1,-1.099999994E-3,-5.499999970E-4,1.443750039E-2
3.595787950E-1,-1.374999993E-4,2.612499986E-3,1.113750041E-2
3.620793320E-1,-1.099999994E-3,-5.499999970E-4,6.874999963E-3
3.645797180E-1,9.624999948E-4,-1.649999991E-3,3.712499980E-3
3.670802550E-1,-1.099999994E-3,1.649999991E-3,-5.499999970E-4
3.695806310E-1,-1.374999993E-4,-5.499999970E-4,-2.612499986E-3
3.720809390E-1,2.062499989E-3,5.499999970E-4,-4.812499974E-3
3.745815520E-1,-1.099999994E-3,1.649999991E-3,-1.003750041E-2
3.770820910E-1,-2.199999988E-3,-1.649999991E-3,-1.429999992E-2
3.795824680E-1,2.062499989E-3,-5.499999970E-4,-1.649999991E-2
3.820830050E-1,-1.374999993E-4,-1.649999991E-3,-2.186249942E-2
3.845833920E-1,-1.099999994E-3,-5.499999970E-4,-2.708750032E-2
3.870836990E-1,9.624999948E-4,-5.499999970E-4,-3.038750030E-2
3.895842360E-1,-1.374999993E-4,5.499999970E-4,-3.355000168E-2
3.920846030E-1,-1.374999993E-4,-5.499999970E-4,-3.561250120E-2
3.945851400E-1,-1.374999993E-4,1.649999991E-3,-3.877500072E-2
3.970855260E-1,-1.374999993E-4,5.499999970E-4,-4.413750023E-2
3.995860630E-1,-1.099999994E-3,5.499999970E-4,-4.413750023E-2
4.020863530E-1,-1.099999994E-3,-5.499999970E-4,-4.839999974E-2
4.045867350E-1,-1.374999993E-4,-5.499999970E-4,-4.949999973E-2
4.070872740E-1,-1.374999993E-4,5.499999970E-4,-5.059999973E-2
4.095876410E-1,-1.099999994E-3,-1.649999991E-3,-5.376249924E-2
4.120881780E-1,-1.374999993E-4,1.649999991E-3,-5.376249924E-2
4.145885640E-1,-1.099999994E-3,-5.499999970E-4,-5.692499876E-2
4.170891010E-1,-1.374999993E-4,-5.499999970E-4,-5.802499875E-2
4.195894880E-1,-2.199999988E-3,5.499999970E-4,-5.802499875E-2
4.220900240E-1,-1.099999994E-3,5.499999970E-4,-5.898749828E-2
4.245903870E-1,-1.099999994E-3,-5.499999970E-4,-6.118749827E-2
4.270909230E-1,-1.374999993E-4,5.499999970E-4,-6.324999779E-2
4.295913100E-1,-1.099999994E-3,-5.499999970E-4,-6.435000151E-2
4.320918460E-1,-2.199999988E-3,-5.499999970E-4,-6.544999778E-2
4.345921420E-1,-1.099999994E-3,-5.499999970E-4,-6.751249731E-2
4.370925240E-1,-1.374999993E-4,-1.649999991E-3,-6.861250103E-2
4.395930630E-1,-1.374999993E-4,5.499999970E-4,-6.861250103E-2
4.420934500E-1,-1.374999993E-4,-1.649999991E-3,-6.655000150E-2
4.445939570E-1,-1.099999994E-3,5.499999970E-4,-6.544999778E-2
4.470943440E-1,-1.099999994E-3,5.499999970E-4,-6.435000151E-2
4.495948800E-1,-1.374999993E-4,-5.499999970E-4,-6.228749827E-2
4.520952670E-1,9.624999948E-4,5.499999970E-4,-6.118749827E-2
4.545955690E-1,-1.374999993E-4,-1.649999991E-3,-6.118749827E-2
4.570961060E-1,-1.099999994E-3,5.499999970E-4,-5.898749828E-2
4.595964930E-1,-1.374999993E-4,5.499999970E-4,-5.582499877E-2
4.620970290E-1,-2.199999988E-3,1.649999991E-3,-5.266249925E-2
4.645974160E-1,9.624999948E-4,5.499999970E-4,-4.949999973E-2
4.670979330E-1,-1.099999994E-3,5.499999970E-4,-4.839999974E-2
4.695983200E-1,-2.199999988E-3,-5.499999970E-4,-4.633750021E-2
4.720988560E-1,-1.099999994E-3,5.499999970E-4,-4.413750023E-2
4.745992430E-1,-1.374999993E-4,-5.499999970E-4,-4.413750023E-2
4.770997740E-1,-1.374999993E-4,-5.499999970E-4,-3.987500072E-2
4.796001610E-1,-1.374999993E-4,5.499999970E-4,-3.877500072E-2
4.821006970E-1,-1.374999993E-4,-5.499999970E-4,-3.561250120E-2
4.846010840E-1,-1.099999994E-3,5.499999970E-4,-3.561250120E-2
4.871013920E-1,9.624999948E-4,-5.499999970E-4,-3.244999796E-2
4.896019280E-1,2.062499989E-3,5.499999970E-4,-2.818750031E-2
4.921023150E-1,9.624999948E-4,-1.649999991E-3,-2.502499893E-2
4.946028510E-1,-1.374999993E-4,-5.499999970E-4,-2.076249942E-2
4.971032040E-1,-2.199999988E-3,-5.499999970E-4,-1.649999991E-2
4.996037400E-1,-1.099999994E-3,5.499999970E-4,-1.113750041E-2
5.021041270E-1,-1.374999993E-4,5.499999970E-4,-5.774999969E-3
5.046046630E-1,9.624999948E-4,-5.499999970E-4,-2.612499986E-3
5.071049540E-1,9.624999948E-4,-5.499999970E-4,2.612499986E-3
5.096055670E-1,-1.374999993E-4,5.499999970E-4,5.912499968E-3
5.121058770E-1,-1.374999993E-4,5.499999970E-4,1.113750041E-2
5.146062620E-1,-1.374999993E-4,-5.499999970E-4,1.223750040E-2
5.171067980E-1,9.624999948E-4,5.499999970E-4,1.869999990E-2
5.196071990E-1,9.624999948E-4,5.499999970E-4,2.076249942E-2
5.221077350E-1,9.624999948E-4,5.499999970E-4,2.392499894E-2
5.246081220E-1,9.624999948E-4,5.499999970E-4,2.392499894E-2
5.271086580E-1,2.062499989E-3,-5.499999970E-4,2.708750032E-2
5.296090450E-1,9.624999948E-4,5.499999970E-4,3.038750030E-2
5.321095820E-1,-1.374999993E-4,-1.649999991E-3,3.135000169E-2
5.346099680E-1,2.062499989E-3,1.649999991E-3,3.671250120E-2
5.371102760E-1,-1.374999993E-4,1.649999991E-3,3.891250119E-2
5.396108120E-1,2.062499989E-3,-5.499999970E-4,4.207500070E-2
5.421111900E-1,2.062499989E-3,-5.499999970E-4,4.633750021E-2
5.446117260E-1,2.062499989E-3,5.499999970E-4,4.743750021E-2
5.471121130E-1,2.062499989E-3,1.649999991E-3,4.949999973E-2
5.496126500E-1,2.062499989E-3,-1.649999991E-3,5.376249924E-2
5.521130450E-1,2.062499989E-3,-5.499999970E-4,5.692499876E-2
5.546135820E-1,2.062499989E-3,-5.499999970E-4,6.118749827E-2
5.571139680E-1,2.062499989E-3,1.649999991E-3,6.228749827E-2
5.596145050E-1,2.062499989E-3,-5.499999970E-4,6.544999778E-2
5.621148910E-1,9.624999948E-4,5.499999970E-4,6.544999778E-2
5.646154280E-1,9.624999948E-4,1.649999991E-3,6.544999778E-2
5.671158140E-1,2.062499989E-3,-1.649999991E-3,6.764999777E-2
5.696161220E-1,9.624999948E-4,5.499999970E-4,6.764999777E-2
5.721166590E-1,2.062499989E-3,5.499999970E-4,6.764999777E-2
5.746170450E-1,2.062499989E-3,1.649999991E-3,6.435000151E-2
5.771175820E-1,9.624999948E-4,5.499999970E-4,6.435000151E-2
5.796179680E-1,2.062499989E-3,5.499999970E-4,6.228749827E-2
5.821185050E-1,9.624999948E-4,1.649999991E-3,6.338749826E-2
5.846188860E-1,2.062499989E-3,2.612499986E-3,6.118749827E-2
5.871194230E-1,9.624999948E-4,1.649999991E-3,6.338749826E-2
5.896197330E-1,3.162499983E-3,5.499999970E-4,6.228749827E-2
5.921201150E-1,9.624999948E-4,5.499999970E-4,6.118749827E-2
5.946206540E-1,9.624999948E-4,-5.499999970E-4,6.008749828E-2
5.971210690E-1,9.624999948E-4,-5.499999970E-4,5.912499875E-2
5.996216060E-1,2.062499989E-3,5.499999970E-4,5.912499875E-2
6.021219920E-1,2.062499989E-3,5.499999970E-4,5.802499875E-2
6.046225290E-1,2.062499989E-3,5.499999970E-4,5.582499877E-2
6.071229300E-1,2.062499989E-3,-1.649999991E-3,5.582499877E-2
6.096234670E-1,-1.374999993E-4,1.649999991E-3,5.156249925E-2
6.121238540E-1,9.624999948E-4,5.499999970E-4,4.949999973E-2
6.146243900E-1,2.062499989E-3,-5.499999970E-4,4.633750021E-2
6.171247910E-1,9.624999948E-4,-5.499999970E-4,4.413750023E-2
6.196253270E-1,2.062499989E-3,1.649999991E-3,3.891250119E-2
6.221257140E-1,-1.374999993E-4,5.499999970E-4,3.561250120E-2
6.246260210E-1,9.624999948E-4,-5.499999970E-4,3.244999796E-2
6.271265580E-1,-1.374999993E-4,-5.499999970E-4,2.708750032E-2
6.296269540E-1,9.624999948E-4,-1.649999991E-3,2.282499894E-2
6.321274910E-1,2.062499989E-3,-5.499999970E-4,2.076249942E-2
6.346278780E-1,-1.374999993E-4,5.499999970E-4,1.539999992E-2
6.371284140E-1,-1.374999993E-4,-5.499999970E-4,1.223750040E-2
6.396288050E-1,-1.374999993E-4,5.499999970E-4,1.113750041E-2
6.421291120E-1,9.624999948E-4,-5.499999970E-4,7.974999957E-3
6.446296490E-1,9.624999948E-4,5.499999970E-4,4.812499974E-3
6.471300350E-1,9.624999948E-4,1.649999991E-3,2.612499986E-3
6.496305680E-1,2.062499989E-3,5.499999970E-4,-5.499999970E-4
6.521309550E-1,-1.374999993E-4,-5.499999970E-4,-4.812499974E-3
6.546314910E-1,-1.374999993E-4,5.499999970E-4,-7.974999957E-3
6.571318780E-1,9.624999948E-4,-5.499999970E-4,-1.003750041E-2
6.596324090E-1,-1.374999993E-4,5.499999970E-4,-1.429999992E-2
6.621327960E-1,-1.374999993E-4,5.499999970E-4,-1.856249943E-2
6.646333320E-1,-1.374999993E-4,5.499999970E-4,-2.186249942E-2
6.671337190E-1,9.624999948E-4,5.499999970E-4,-2.612499893E-2
6.696342690E-1,-1.099999994E-3,-5.499999970E-4,-3.135000169E-2
6.721346560E-1,-1.099999994E-3,-1.649999991E-3,-3.451250121E-2
6.746351920E-1,-1.099999994E-3,5.499999970E-4,-3.877500072E-2
6.771355020E-1,9.624999948E-4,-5.499999970E-4,-4.303750023E-2
6.796359090E-1,-1.374999993E-4,-1.649999991E-3,-4.633750021E-2
6.821364470E-1,-3.299999982E-3,2.612499986E-3,-4.839999974E-2
6.846368340E-1,-2.199999988E-3,-5.499999970E-4,-5.266249925E-2
6.871373700E-1,-1.374999993E-4,5.499999970E-4,-5.266249925E-2
6.896377570E-1,-1.374999993E-4,-5.499999970E-4,-5.486249924E-2
6.921383030E-1,-1.374999993E-4,-5.499999970E-4,-5.486249924E-2
6.946386900E-1,-1.099999994E-3,-5.499999970E-4,-5.802499875E-2
6.971389980E-1,-1.374999993E-4,-5.499999970E-4,-5.692499876E-2
6.996396110E-1,-1.099999994E-3,5.499999970E-4,-5.802499875E-2
7.021399160E-1,-1.099999994E-3,-1.649999991E-3,-5.802499875E-2
7.046405290E-1,-1.374999993E-4,-2.612499986E-3,-6.118749827E-2
7.071408390E-1,-1.099999994E-3,-1.649999991E-3,-6.324999779E-2
7.096414520E-1,-1.374999993E-4,1.649999991E-3,-6.435000151E-2
7.121417620E-1,-1.374999993E-4,-1.649999991E-3,-6.228749827E-2
7.146422790E-1,-1.374999993E-4,-5.499999970E-4,-6.435000151E-2
7.171426660E-1,-2.199999988E-3,-1.649999991E-3,-6.544999778E-2
7.196432020E-1,-3.299999982E-3,5.499999970E-4,-6.861250103E-2
7.221435890E-1,-1.374999993E-4,-5.499999970E-4,-6.971249729E-2
7.246441260E-1,-1.099999994E-3,5.499999970E-4,-6.544999778E-2
7.271445490E-1,-1.374999993E-4,5.499999970E-4,-6.544999778E-2
7.296448570E-1,-1.099999994E-3,5.499999970E-4,-6.544999778E-2
7.321453930E-1,-2.199999988E-3,-2.612499986E-3,-6.435000151E-2
7.346457800E-1,-1.374999993E-4,5.499999970E-4,-6.324999779E-2
7.371463210E-1,-2.199999988E-3,1.649999991E-3,-6.228749827E-2
7.396467080E-1,-1.099999994E-3,-5.499999970E-4,-5.802499875E-2
7.421472450E-1,-1.099999994E-3,-5.499999970E-4,-5.582499877E-2
7.446476310E-1,-1.374999993E-4,1.649999991E-3,-5.376249924E-2
7.471481730E-1,-1.099999994E-3,1.649999991E-3,-5.156249925E-2
7.496484820E-1,-1.374999993E-4,-5.499999970E-4,-4.729999974E-2
7.521490960E-1,9.624999948E-4,-5.499999970E-4,-4.729999974E-2
7.546494050E-1,-1.374999993E-4,-5.499999970E-4,-4.303750023E-2
7.571500380E-1,-1.374999993E-4,-5.499999970E-4,-3.987500072E-2
7.596504240E-1,-1.374999993E-4,-1.649999991E-3,-3.781250119E-2
7.621509610E-1,-1.374999993E-4,5.499999970E-4,-3.451250121E-2
7.646512710E-1,-1.374999993E-4,-1.649999991E-3,-3.244999796E-2
7.671516240E-1,9.624999948E-4,-1.649999991E-3,-3.038750030E-2
7.696521630E-1,-1.099999994E-3,-1.649999991E-3,-2.612499893E-2
7.721525490E-1,-1.099999994E-3,-5.499999970E-4,-2.502499893E-2
7.746530860E-1,-1.099999994E-3,5.499999970E-4,-2.186249942E-2
7.771534720E-1,9.624999948E-4,-5.499999970E-4,-1.759999990E-2
7.796539960E-1,9.624999948E-4,-5.499999970E-4,-1.539999992E-2
7.821543820E-1,-1.374999993E-4,1.649999991E-3,-1.003750041E-2
7.846546900E-1,-1.374999993E-4,5.499999970E-4,-6.874999963E-3
7.871552270E-1,9.624999948E-4,1.649999991E-3,-2.612499986E-3
7.896556130E-1,-1.099999994E-3,-5.499999970E-4,1.649999991E-3
7.921561500E-1,-1.099999994E-3,5.499999970E-4,6.874999963E-3
7.946565360E-1,9.624999948E-4,-5.499999970E-4,1.017499994E-2
7.971570730E-1,9.624999948E-4,-5.499999970E-4,1.443750039E-2
7.996574540E-1,-1.374999993E-4,5.499999970E-4,1.869999990E-2
8.021579910E-1,9.624999948E-4,-5.499999970E-4,2.076249942E-2
8.046583770E-1,9.624999948E-4,-1.649999991E-3,2.282499894E-2
8.071589140E-1,2.062499989E-3,5.499999970E-4,2.708750032E-2
8.096593010E-1,9.624999948E-4,5.499999970E-4,2.928750031E-2
8.121596210E-1,-1.374999993E-4,-5.499999970E-4,3.244999796E-2
8.146602350E-1,2.062499989E-3,5.499999970E-4,3.561250120E-2
8.171605440E-1,-1.374999993E-4,-5.499999970E-4,3.561250120E-2
8.196611580E-1,-1.374999993E-4,1.649999991E-3,3.891250119E-2
8.221614480E-1,9.624999948E-4,5.499999970E-4,3.987500072E-2
8.246619850E-1,9.624999948E-4,5.499999970E-4,4.207500070E-2
8.271623720E-1,2.062499989E-3,-5.499999970E-4,4.413750023E-2
8.296629080E-1,-1.374999993E-4,5.499999970E-4,4.413750023E-2
8.321632950E-1,2.062499989E-3,-5.499999970E-4,4.743750021E-2
8.346638260E-1,2.062499989E-3,5.499999970E-4,4.743750021E-2
8.371642130E-1,2.062499989E-3,2.612499986E-3,4.743750021E-2
8.396647490E-1,9.624999948E-4,5.499999970E-4,4.743750021E-2
8.421650590E-1,9.624999948E-4,-1.649999991E-3,4.839999974E-2
8.446656820E-1,-1.374999993E-4,5.499999970E-4,4.523750022E-2
8.471659920E-1,-1.374999993E-4,1.649999991E-3,4.523750022E-2
8.496666050E-1,2.062499989E-3,-5.499999970E-4,4.523750022E-2
8.521669150E-1,2.062499989E-3,-5.499999970E-4,4.207500070E-2
8.546672900E-1,9.624999948E-4,1.649999991E-3,4.097500071E-2
8.571678260E-1,-1.374999993E-4,-5.499999970E-4,3.987500072E-2
8.596682130E-1,-1.374999993E-4,-5.499999970E-4,3.781250119E-2
8.621687490E-1,9.624999948E-4,5.499999970E-4,3.781250119E-2
8.646691120E-1,2.062499989E-3,5.499999970E-4,3.464999795E-2
8.671696480E-1,2.062499989E-3,-2.612499986E-3,3.464999795E-2
8.696700350E-1,2.062499989E-3,-5.499999970E-4,3.135000169E-2
8.721705710E-1,-1.374999993E-4,-5.499999970E-4,3.135000169E-2
8.746709050E-1,9.624999948E-4,2.612499986E-3,2.818750031E-2
8.771712880E-1,-1.374999993E-4,-5.499999970E-4,2.502499893E-2
8.796718260E-1,-1.374999993E-4,-2.612499986E-3,2.282499894E-2
8.821722130E-1,-1.374999993E-4,1.649999991E-3,2.076249942E-2
8.846727590E-1,9.624999948E-4,2.612499986E-3,1.966249943E-2
8.871731460E-1,9.624999948E-4,5.499999970E-4,1.759999990E-2
8.896736820E-1,-1.374999993E-4,-1.649999991E-3,1.649999991E-2
8.921740690E-1,9.624999948E-4,5.499999970E-4,1.113750041E-2
8.946743770E-1,-1.374999993E-4,-5.499999970E-4,1.333750039E-2
8.971748790E-1,-1.374999993E-4,5.499999970E-4,1.223750040E-2
8.996752660E-1,-1.374999993E-4,-5.499999970E-4,9.074999951E-3
9.021758020E-1,2.062499989E-3,1.649999991E-3,9.074999951E-3
9.046761890E-1,9.624999948E-4,5.499999970E-4,7.974999957E-3
9.071767060E-1,-1.374999993E-4,5.499999970E-4,5.912499968E-3
9.096770930E-1,9.624999948E-4,1.649999991E-3,4.812499974E-3
9.121776290E-1,2.062499989E-3,5.499999970E-4,3.712499980E-3
9.146780160E-1,-1.374999993E-4,-1.649999991E-3,2.612499986E-3
9.171785530E-1,9.624999948E-4,-1.649999991E-3,1.649999991E-3
9.196789530E-1,-1.374999993E-4,5.499999970E-4,5.499999970E-4
9.221794900E-1,-1.374999993E-4,5.499999970E-4,1.649999991E-3
9.246798760E-1,9.624999948E-4,-1.649999991E-3,-1.649999991E-3
9.271804130E-1,-1.374999993E-4,1.649999991E-3,-4.812499974E-3
9.296807130E-1,9.624999948E-4,5.499999970E-4,-4.812499974E-3
9.321810960E-1,-1.374999993E-4,-1.649999991E-3,-6.874999963E-3
9.346816350E-1,9.624999948E-4,-5.499999970E-4,-6.874999963E-3
9.371820210E-1,-1.374999993E-4,1.649999991E-3,-9.074999951E-3
9.396825720E-1,9.624999948E-4,-5.499999970E-4,-1.113750041E-2
9.421829580E-1,2.062499989E-3,-5.499999970E-4,-1.333750039E-2
9.446834950E-1,9.624999948E-4,-5.499999970E-4,-1.539999992E-2
9.471838810E-1,-2.199999988E-3,5.499999970E-4,-1.759999990E-2
9.496844180E-1,-1.374999993E-4,-5.499999970E-4,-1.759999990E-2
9.521847410E-1,9.624999948E-4,-5.499999970E-4,-1.966249943E-2
9.546853550E-1,-1.099999994E-3,-5.499999970E-4,-1.759999990E-2
9.571856650E-1,-1.374999993E-4,-5.499999970E-4,-2.076249942E-2
9.596860490E-1,-1.374999993E-4,-1.649999991E-3,-2.186249942E-2
9.621865860E-1,9.624999948E-4,-1.649999991E-3,-2.076249942E-2
9.646869720E-1,9.624999948E-4,5.499999970E-4,-2.076249942E-2
9.671875090E-1,-1.099999994E-3,-5.499999970E-4,-2.076249942E-2
9.696878950E-1,-1.099999994E-3,-1.649999991E-3,-2.186249942E-2
9.721884370E-1,-1.374999993E-4,-1.649999991E-3,-2.076249942E-2
9.746888230E-1,-1.099999994E-3,3.712499980E-3,-1.966249943E-2
9.771893600E-1,9.624999948E-4,-1.649999991E-3,-2.186249942E-2
9.796897470E-1,-1.374999993E-4,-5.499999970E-4,-2.282499894E-2
9.821902690E-1,9.624999948E-4,-5.499999970E-4,-2.186249942E-2
9.846905790E-1,9.624999948E-4,-5.499999970E-4,-2.282499894E-2
9.871909610E-1,-1.374999993E-4,-1.649999991E-3,-2.076249942E-2
9.896915000E-1,-1.374999993E-4,5.499999970E-4,-2.076249942E-2
9.921919150E-1,-1.374999993E-4,5.499999970E-4,-2.076249942E-2
9.946924520E-1,-1.099999994E-3,-5.499999970E-4,-1.966249943E-2
9.971928380E-1,-1.374999993E-4,-1.649999991E-3,-2.076249942E-2
9.996933750E-1,-1.099999994E-3,1.649999991E-3,-1.966249943E-2
1.002193762E0,-2.199999988E-3,5.499999970E-4,-1.856249943E-2
1.004694308E0,-1.374999993E-4,-1.649999991E-3,-1.649999991E-2
1.007194695E0,-1.374999993E-4,5.499999970E-4,-1.429999992E-2
1.009695231E0,-1.374999993E-4,-5.499999970E-4,-1.113750041E-2
1.012195618E0,-1.099999994E-3,5.499999970E-4,-1.003750041E-2
1.014696130E0,-1.374999993E-4,-5.499999970E-4,-7.974999957E-3
1.017196517E0,-1.374999993E-4,5.499999970E-4,-5.774999969E-3
1.019696825E0,-1.374999993E-4,5.499999970E-4,-2.612499986E-3
1.022197361E0,-1.374999993E-4,-5.499999970E-4,5.499999970E-4
1.024697743E0,2.062499989E-3,5.499999970E-4,3.712499980E-3
1.027198279E0,-1.374999993E-4,-5.499999970E-4,3.712499980E-3
1.029698666E0,2.062499989E-3,1.649999991E-3,5.912499968E-3
1.032199202E0,9.624999948E-4,-2.612499986E-3,1.017499994E-2
1.034699613E0,9.624999948E-4,1.649999991E-3,9.074999951E-3
1.037200149E0,-1.374999993E-4,5.499999970E-4,1.113750041E-2
1.039700459E0,-1.374999993E-4,1.649999991E-3,1.017499994E-2
1.042200842E0,-1.099999994E-3,-5.499999970E-4,1.223750040E-2
1.044701361E0,9.624999948E-4,-5.499999970E-4,1.333750039E-2
1.047201748E0,-1.374999993E-4,1.649999991E-3,1.333750039E-2
1.049702284E0,-1.374999993E-4,-5.499999970E-4,1.223750040E-2
1.052202671E0,9.624999948E-4,5.499999970E-4,1.223750040E-2
1.054703207E0,-1.374999993E-4,-5.499999970E-4,1.443750039E-2
1.057203589E0,-1.374999993E-4,5.499999970E-4,1.443750039E-2
1.059704125E0,9.624999948E-4,5.499999970E-4,1.539999992E-2
1.062204512E0,-1.374999993E-4,5.499999970E-4,1.649999991E-2
1.064705048E0,-1.374999993E-4,5.499999970E-4,1.649999991E-2
1.067205445E0,-1.374999993E-4,-1.649999991E-3,1.539999992E-2
1.069705982E0,9.624999948E-4,5.499999970E-4,1.649999991E-2
1.072206368E0,-1.374999993E-4,-5.499999970E-4,1.539999992E-2
1.074706676E0,-1.374999993E-4,1.649999991E-3,1.649999991E-2
1.077207226E0,9.624999948E-4,-5.499999970E-4,1.443750039E-2
1.079707613E0,-1.374999993E-4,-1.649999991E-3,1.649999991E-2
1.082208149E0,9.624999948E-4,-5.499999970E-4,1.539999992E-2
1.084708536E0,9.624999948E-4,5.499999970E-4,1.539999992E-2
1.087209072E0,9.624999948E-4,-1.649999991E-3,1.113750041E-2
1.089709459E0,-1.374999993E-4,1.649999991E-3,7.974999957E-3
1.092209767E0,-1.374999993E-4,5.499999970E-4,7.974999957E-3
1.094710380E0,9.624999948E-4,-5.499999970E-4,7.974999957E-3
1.097210685E0,9.624999948E-4,-5.499999970E-4,6.874999963E-3
1.099711298E0,-1.374999993E-4,-5.499999970E-4,4.812499974E-3
1.102211608E0,9.624999948E-4,5.499999970E-4,2.612499986E-3
1.104712144E0,9.624999948E-4,-1.649999991E-3,5.912499968E-3
1.107212507E0,-1.374999993E-4,-5.499999970E-4,2.612499986E-3
1.109713044E0,-1.099999994E-3,5.499999970E-4,5.912499968E-3
1.112213430E0,2.062499989E-3,5.499999970E-4,6.874999963E-3
1.114713967E0,-1.099999994E-3,-5.499999970E-4,7.974999957E-3
1.117214353E0,9.624999948E-4,5.499999970E-4,7.974999957E-3
1.119714890E0,9.624999948E-4,1.649999991E-3,1.017499994E-2
1.122215276E0,9.624999948E-4,-5.499999970E-4,9.074999951E-3
1.124715813E0,2.062499989E-3,-5.499999970E-4,1.113750041E-2
1.127216199E0,9.624999948E-4,-1.649999991E-3,1.017499994E-2
1.129716521E0,-2.199999988E-3,-1.649999991E-3,1.113750041E-2
1.132217058E0,9.624999948E-4,-5.499999970E-4,1.223750040E-2
1.134717444E0,9.624999948E-4,-5.499999970E-4,1.223750040E-2
1.137217981E0,-1.374999993E-4,-1.649999991E-3,9.074999951E-3
1.139718372E0,9.624999948E-4,-5.499999970E-4,6.874999963E-3
1.142218909E0,2.062499989E-3,-5.499999970E-4,6.874999963E-3
1.144719295E0,9.624999948E-4,5.499999970E-4,5.912499968E-3
1.147219832E0,-1.374999993E-4,-5.499999970E-4,5.912499968E-3
1.149720228E0,-1.374999993E-4,1.649999991E-3,4.812499974E-3
1.152220765E0,-1.374999993E-4,5.499999970E-4,3.712499980E-3
1.154721152E0,9.624999948E-4,-5.499999970E-4,2.612499986E-3
1.157221688E0,9.624999948E-4,-5.499999970E-4,5.499999970E-4
1.159721982E0,-1.374999993E-4,-5.499999970E-4,5.499999970E-4
1.162222595E0,9.624999948E-4,5.499999970E-4,5.499999970E-4
1.164722905E0,-1.374999993E-4,-5.499999970E-4,1.649999991E-3
1.167223518E0,-1.374999993E-4,5.499999970E-4,2.612499986E-3
1.169723828E0,9.624999948E-4,-2.612499986E-3,5.499999970E-4
1.172224213E0,-1.374999993E-4,-5.499999970E-4,-1.649999991E-3
1.174724749E0,9.624999948E-4,5.499999970E-4,-4.812499974E-3
1.177225136E0,-1.374999993E-4,-5.499999970E-4,-4.812499974E-3
1.179725682E0,-1.099999994E-3,-1.649999991E-3,-7.974999957E-3
1.182226069E0,-1.099999994E-3,-5.499999970E-4,-1.003750041E-2
1.184726605E0,-1.374999993E-4,5.499999970E-4,-1.113750041E-2
1.187226915E0,-1.374999993E-4,-5.499999970E-4,-1.539999992E-2
1.189727302E0,2.062499989E-3,-1.649999991E-3,-1.759999990E-2
1.192227841E0,-1.099999994E-3,-1.649999991E-3,-2.076249942E-2
1.194728228E0,-1.374999993E-4,-5.499999970E-4,-2.186249942E-2
1.197228764E0,-1.374999993E-4,-5.499999970E-4,-2.392499894E-2
1.199729146E0,9.624999948E-4,5.499999970E-4,-2.282499894E-2
1.202229682E0,-1.099999994E-3,-5.499999970E-4,-2.502499893E-2
1.204730069E0,-1.099999994E-3,-5.499999970E-4,-2.392499894E-2
1.207230376E0,-1.099999994E-3,-1.649999991E-3,-2.502499893E-2
1.209730990E0,-1.374999993E-4,1.649999991E-3,-2.392499894E-2
1.212231300E0,-1.099999994E-3,-5.499999970E-4,-2.502499893E-2
1.214731913E0,-1.374999993E-4,-1.649999991E-3,-2.392499894E-2
1.217232451E0,-1.374999993E-4,-5.499999970E-4,-2.076249942E-2
1.219732838E0,9.624999948E-4,1.649999991E-3,-1.966249943E-2
1.222233379E0,-1.374999993E-4,5.499999970E-4,-2.186249942E-2
1.224733766E0,-1.374999993E-4,-5.499999970E-4,-1.856249943E-2
1.227234074E0,-1.099999994E-3,1.649999991E-3,-2.186249942E-2
1.229734610E0,9.624999948E-4,-5.499999970E-4,-2.076249942E-2
1.232234982E0,-1.374999993E-4,-5.499999970E-4,-1.759999990E-2
1.234735518E0,-1.374999993E-4,-1.649999991E-3,-2.076249942E-2
1.237235905E0,-1.374999993E-4,5.499999970E-4,-2.076249942E-2
1.239736446E0,-1.099999994E-3,-1.649999991E-3,-1.856249943E-2
1.242236833E0,-1.099999994E-3,-1.649999991E-3,-1.759999990E-2
1.244737141E0,-1.374999993E-4,-5.499999970E-4,-1.856249943E-2
1.247237677E0,9.624999948E-4,-5.499999970E-4,-1.649999991E-2
1.249738064E0,-1.374999993E-4,-1.649999991E-3,-1.539999992E-2
1.252238600E0,9.624999948E-4,-1.649999991E-3,-1.223750040E-2
1.254738977E0,-2.199999988E-3,-5.499999970E-4,-1.113750041E-2
1.257239513E0,-1.374999993E-4,1.649999991E-3,-7.974999957E-3
1.259739900E0,-1.374999993E-4,-5.499999970E-4,-4.812499974E-3
1.262240437E0,9.624999948E-4,-1.649999991E-3,-3.712499980E-3
1.264740823E0,-1.374999993E-4,5.499999970E-4,-1.649999991E-3
1.267241360E0,-1.374999993E-4,-5.499999970E-4,5.499999970E-4
1.269741669E0,-1.374999993E-4,-5.499999970E-4,3.712499980E-3
1.272242283E0,9.624999948E-4,-1.649999991E-3,4.812499974E-3
1.274742592E0,-1.099999994E-3,5.499999970E-4,5.912499968E-3
1.277243216E0,-1.099999994E-3,-1.649999991E-3,9.074999951E-3
1.279743525E0,-1.374999993E-4,5.499999970E-4,9.074999951E-3
1.282243910E0,9.624999948E-4,-5.499999970E-4,7.974999957E-3
1.284744447E0,9.624999948E-4,-5.499999970E-4,7.974999957E-3
1.287244818E0,9.624999948E-4,-5.499999970E-4,1.017499994E-2
1.289745355E0,9.624999948E-4,5.499999970E-4,1.113750041E-2
1.292245741E0,9.624999948E-4,5.499999970E-4,1.223750040E-2
1.294746278E0,-1.374999993E-4,5.499999970E-4,1.333750039E-2
1.297246664E0,2.062499989E-3,-2.612499986E-3,1.113750041E-2
1.299747196E0,-1.374999993E-4,-5.499999970E-4,1.333750039E-2
1.302247506E0,9.624999948E-4,5.499999970E-4,1.443750039E-2
1.304747888E0,-1.374999993E-4,5.499999970E-4,1.759999990E-2
1.307248427E0,9.624999948E-4,-5.499999970E-4,1.649999991E-2
1.309748804E0,9.624999948E-4,5.499999970E-4,1.759999990E-2
1.312249341E0,-1.374999993E-4,1.649999991E-3,1.966249943E-2
1.314749727E0,9.624999948E-4,-1.649999991E-3,1.759999990E-2
1.317250264E0,9.624999948E-4,5.499999970E-4,1.869999990E-2
1.319750650E0,9.624999948E-4,1.649999991E-3,1.759999990E-2
1.322251177E0,9.624999948E-4,-5.499999970E-4,1.869999990E-2
1.324751564E0,2.062499989E-3,1.649999991E-3,1.759999990E-2
1.327252100E0,-1.374999993E-4,-5.499999970E-4,1.869999990E-2
1.329752487E0,9.624999948E-4,-5.499999970E-4,1.966249943E-2
1.332253048E0,9.624999948E-4,-5.499999970E-4,1.649999991E-2
1.334753435E0,-1.374999993E-4,5.499999970E-4,1.759999990E-2
1.337253742E0,2.062499989E-3,-5.499999970E-4,1.539999992E-2
1.339754279E0,-1.374999993E-4,-5.499999970E-4,1.223750040E-2
1.342254665E0,2.062499989E-3,-1.649999991E-3,1.333750039E-2
1.344755202E0,2.062499989E-3,5.499999970E-4,1.333750039E-2
1.347255589E0,9.624999948E-4,-5.499999970E-4,1.333750039E-2
1.349756125E0,-1.374999993E-4,5.499999970E-4,1.223750040E-2
1.352256507E0,-1.374999993E-4,-5.499999970E-4,1.223750040E-2
1.354757043E0,2.062499989E-3,-5.499999970E-4,1.223750040E-2
1.357257430E0,2.062499989E-3,5.499999970E-4,1.223750040E-2
1.359757737E0,-1.374999993E-4,-1.649999991E-3,1.017499994E-2
1.362258260E0,-1.374999993E-4,5.499999970E-4,1.017499994E-2
1.364758647E0,9.624999948E-4,5.499999970E-4,1.017499994E-2
1.367259183E0,2.062499989E-3,1.649999991E-3,7.974999957E-3
1.369759570E0,9.624999948E-4,-5.499999970E-4,6.874999963E-3
1.372260111E0,9.624999948E-4,-5.499999970E-4,5.912499968E-3
1.374760498E0,-1.099999994E-3,-5.499999970E-4,2.612499986E-3
1.377261034E0,-1.374999993E-4,-5.499999970E-4,1.649999991E-3
1.379761421E0,9.624999948E-4,-5.499999970E-4,5.499999970E-4
1.382261957E0,-1.374999993E-4,-1.649999991E-3,-1.649999991E-3
1.384762344E0,-1.374999993E-4,1.649999991E-3,-2.612499986E-3
1.387262880E0,-1.374999993E-4,-5.499999970E-4,-2.612499986E-3
1.389763267E0,-2.199999988E-3,5.499999970E-4,-5.774999969E-3
1.392263803E0,-1.374999993E-4,-1.649999991E-3,-4.812499974E-3
1.394764180E0,-1.374999993E-4,5.499999970E-4,-6.874999963E-3
1.397264488E0,-1.374999993E-4,-5.499999970E-4,-7.974999957E-3
1.399765024E0,9.624999948E-4,5.499999970E-4,-9.074999951E-3
1.402265411E0,-1.374999993E-4,5.499999970E-4,-1.113750041E-2
1.404765937E0,-1.099999994E-3,-5.499999970E-4,-1.113750041E-2
1.407266324E0,-1.099999994E-3,-5.499999970E-4,-1.333750039E-2
1.409766860E0,-1.374999993E-4,-5.499999970E-4,-1.429999992E-2
1.412267247E0,-1.099999994E-3,1.649999991E-3,-1.649999991E-2
1.414767783E0,-1.374999993E-4,-1.649999991E-3,-1.759999990E-2
1.417268151E0,-1.374999993E-4,-1.649999991E-3,-2.076249942E-2
1.419768459E0,-1.374999993E-4,-1.649999991E-3,-2.282499894E-2
1.422268995E0,-1.374999993E-4,1.649999991E-3,-2.612499893E-2
1.424769382E0,-1.374999993E-4,5.499999970E-4,-2.612499893E-2
1.427269928E0,9.624999948E-4,-1.649999991E-3,-2.818750031E-2
1.429770315E0,-1.099999994E-3,-1.649999991E-3,-3.038750030E-2
1.432270851E0,-1.099999994E-3,-5.499999970E-4,-3.355000168E-2
1.434771238E0,-1.099999994E-3,-1.649999991E-3,-3.355000168E-2
1.437271789E0,-1.374999993E-4,-5.499999970E-4,-3.451250121E-2
1.439772175E0,-1.374999993E-4,-1.649999991E-3,-3.781250119E-2
1.442272712E0,-1.099999994E-3,5.499999970E-4,-3.781250119E-2
1.444773098E0,-1.099999994E-3,-1.649999991E-3,-3.877500072E-2
1.447273635E0,-1.374999993E-4,5.499999970E-4,-3.877500072E-2
1.449774021E0,-1.099999994E-3,-5.499999970E-4,-3.781250119E-2
1.452274558E0,-1.099999994E-3,-5.499999970E-4,-3.987500072E-2
1.454774868E0,-1.374999993E-4,-5.499999970E-4,-4.207500070E-2
1.457275250E0,-1.374999993E-4,-5.499999970E-4,-4.207500070E-2
1.459775804E0,-1.099999994E-3,5.499999970E-4,-4.303750023E-2
1.462276190E0,-1.099999994E-3,5.499999970E-4,-4.207500070E-2
1.464776727E0,-1.374999993E-4,-1.649999991E-3,-3.987500072E-2
1.467277113E0,-1.099999994E-3,-1.649999991E-3,-3.987500072E-2
1.469777645E0,-1.099999994E-3,-1.649999991E-3,-4.097500071E-2
1.472278031E0,-1.099999994E-3,-5.499999970E-4,-4.097500071E-2
1.474778339E0,-2.199999988E-3,5.499999970E-4,-3.987500072E-2
1.477278952E0,-2.199999988E-3,5.499999970E-4,-3.671250120E-2
1.479779252E0,-1.374999993E-4,-1.649999991E-3,-3.561250120E-2
1.482279866E0,-1.099999994E-3,-5.499999970E-4,-3.355000168E-2
1.484780175E0,-1.374999993E-4,-5.499999970E-4,-3.355000168E-2
1.487280712E0,-1.099999994E-3,-5.499999970E-4,-2.928750031E-2
1.489781113E0,-1.099999994E-3,-5.499999970E-4,-2.818750031E-2
1.492281650E0,-1.099999994E-3,-1.649999991E-3,-2.818750031E-2
1.494782036E0,-1.374999993E-4,-1.649999991E-3,-2.612499893E-2
1.497282573E0,-1.374999993E-4,1.649999991E-3,-2.392499894E-2
1.499782945E0,-1.374999993E-4,-1.649999991E-3,-2.282499894E-2
1.502283481E0,-1.374999993E-4,-5.499999970E-4,-2.076249942E-2
1.504783868E0,-1.374999993E-4,5.499999970E-4,-1.856249943E-2
1.507284404E0,-1.099999994E-3,5.499999970E-4,-1.759999990E-2
1.509784781E0,-1.374999993E-4,-5.499999970E-4,-1.649999991E-2
1.512285088E0,-1.374999993E-4,5.499999970E-4,-1.429999992E-2
1.514785625E0,-1.374999993E-4,5.499999970E-4,-1.333750039E-2
1.517286012E0,9.624999948E-4,-5.499999970E-4,-1.223750040E-2
1.519786548E0,-1.374999993E-4,5.499999970E-4,-9.074999951E-3
1.522286935E0,-1.374999993E-4,5.499999970E-4,-6.874999963E-3
1.524787471E0,9.624999948E-4,5.499999970E-4,-3.712499980E-3
1.527287858E0,-1.374999993E-4,5.499999970E-4,-4.812499974E-3
1.529788418E0,-1.374999993E-4,5.499999970E-4,1.649999991E-3
1.532288728E0,-1.374999993E-4,-5.499999970E-4,3.712499980E-3
1.534789341E0,9.624999948E-4,1.649999991E-3,7.974999957E-3
1.537289651E0,-1.374999993E-4,5.499999970E-4,9.074999951E-3
1.539790240E0,2.062499989E-3,5.499999970E-4,1.223750040E-2
1.542290550E0,-1.099999994E-3,-1.649999991E-3,1.539999992E-2
1.544791163E0,-1.374999993E-4,-5.499999970E-4,1.869999990E-2
1.547291473E0,9.624999948E-4,5.499999970E-4,1.966249943E-2
1.549792087E0,9.624999948E-4,5.499999970E-4,1.966249943E-2
1.552292396E0,2.062499989E-3,-5.499999970E-4,2.282499894E-2
1.554792781E0,2.062499989E-3,-1.649999991E-3,2.612499893E-2
1.557293317E0,9.624999948E-4,5.499999970E-4,2.392499894E-2
1.559793704E0,9.624999948E-4,5.499999970E-4,2.612499893E-2
1.562294245E0,9.624999948E-4,5.499999970E-4,2.612499893E-2
1.564794632E0,2.062499989E-3,-5.499999970E-4,2.818750031E-2
1.567295168E0,2.062499989E-3,1.649999991E-3,3.038750030E-2
1.569795478E0,9.624999948E-4,-5.499999970E-4,3.038750030E-2
1.572295871E0,2.062499989E-3,-1.649999991E-3,3.135000169E-2
1.574796409E0,2.062499989E-3,-5.499999970E-4,3.135000169E-2
1.577296796E0,9.624999948E-4,-5.499999970E-4,3.244999796E-2
1.579797332E0,9.624999948E-4,1.649999991E-3,3.135000169E-2
1.582297723E0,-1.374999993E-4,-5.499999970E-4,3.244999796E-2
1.584798259E0,9.624999948E-4,5.499999970E-4,3.464999795E-2
1.587298646E0,9.624999948E-4,-5.499999970E-4,3.355000168E-2
1.589799183E0,3.162499983E-3,-1.649999991E-3,3.244999796E-2
1.592299560E0,9.624999948E-4,5.499999970E-4,3.135000169E-2
1.594799868E0,3.162499983E-3,5.499999970E-4,3.038750030E-2
1.597300481E0,3.162499983E-3,5.499999970E-4,2.928750031E-2
1.599800791E0,2.062499989E-3,-1.649999991E-3,2.708750032E-2
1.602301404E0,-1.374999993E-4,5.499999970E-4,2.612499893E-2
1.604801714E0,9.624999948E-4,5.499999970E-4,2.392499894E-2
1.607302327E0,3.162499983E-3,-5.499999970E-4,2.186249942E-2
1.609802637E0,9.624999948E-4,-5.499999970E-4,1.966249943E-2
1.612303174E0,9.624999948E-4,5.499999970E-4,1.539999992E-2
1.614803565E0,-1.374999993E-4,5.499999970E-4,1.443750039E-2
1.617304102E0,9.624999948E-4,5.499999970E-4,1.223750040E-2
1.619804488E0,-1.374999993E-4,5.499999970E-4,1.113750041E-2
1.622305025E0,-1.374999993E-4,-1.649999991E-3,1.017499994E-2
1.624805420E0,9.624999948E-4,-5.499999970E-4,1.113750041E-2
1.627305957E0,9.624999948E-4,5.499999970E-4,6.874999963E-3
1.629806343E0,2.062499989E-3,5.499999970E-4,7.974999957E-3
1.632306651E0,2.062499989E-3,-5.499999970E-4,7.974999957E-3
1.634807174E0,-1.374999993E-4,5.499999970E-4,7.974999957E-3
1.637307560E0,9.624999948E-4,-5.499999970E-4,3.712499980E-3
1.639808097E0,9.624999948E-4,5.499999970E-4,4.812499974E-3
1.642308483E0,9.624999948E-4,-1.649999991E-3,3.712499980E-3
1.644809020E0,9.624999948E-4,-5.499999970E-4,1.649999991E-3
1.647309415E0,9.624999948E-4,-5.499999970E-4,-2.612499986E-3
1.649809952E0,-1.099999994E-3,5.499999970E-4,-1.649999991E-3
1.652310339E0,9.624999948E-4,5.499999970E-4,-2.612499986E-3
1.654810875E0,9.624999948E-4,-5.499999970E-4,-4.812499974E-3
1.657311171E0,-1.374999993E-4,5.499999970E-4,-7.974999957E-3
1.659811784E0,-1.374999993E-4,5.499999970E-4,-9.074999951E-3
1.662312094E0,9.624999948E-4,-5.499999970E-4,-9.074999951E-3
1.664812478E0,-1.374999993E-4,-5.499999970E-4,-1.223750040E-2
1.667313015E0,-1.099999994E-3,-5.499999970E-4,-1.333750039E-2
1.669813401E0,-1.374999993E-4,-5.499999970E-4,-1.429999992E-2
1.672313938E0,9.624999948E-4,-5.499999970E-4,-1.113750041E-2
1.674814325E0,-1.099999994E-3,5.499999970E-4,-1.223750040E-2
1.677314861E0,-2.199999988E-3,-5.499999970E-4,-1.333750039E-2
1.679815248E0,-1.374999993E-4,-5.499999970E-4,-1.333750039E-2
1.682315784E0,-1.374999993E-4,-5.499999970E-4,-1.223750040E-2
1.684816171E0,-1.099999994E-3,-5.499999970E-4,-1.113750041E-2
1.687316707E0,-1.374999993E-4,-5.499999970E-4,-1.223750040E-2
1.689817017E0,-1.374999993E-4,1.649999991E-3,-1.223750040E-2
1.692317400E0,-1.099999994E-3,5.499999970E-4,-1.113750041E-2
1.694817938E0,-1.374999993E-4,-5.499999970E-4,-1.223750040E-2
1.697318310E0,9.624999948E-4,-5.499999970E-4,-1.003750041E-2
1.699818846E0,-1.099999994E-3,-5.499999970E-4,-1.333750039E-2
1.702319233E0,-1.374999993E-4,5.499999970E-4,-1.113750041E-2
1.704819769E0,-1.374999993E-4,-5.499999970E-4,-1.223750040E-2
1.707320156E0,-1.374999993E-4,-5.499999970E-4,-1.223750040E-2
1.709820707E0,9.624999948E-4,1.649999991E-3,-1.333750039E-2
1.712321094E0,9.624999948E-4,-1.649999991E-3,-1.003750041E-2
1.714821630E0,-1.374999993E-4,-1.649999991E-3,-9.074999951E-3
1.717322017E0,9.624999948E-4,-5.499999970E-4,-9.074999951E-3
1.719822334E0,-1.374999993E-4,-5.499999970E-4,-7.974999957E-3
1.722322947E0,9.624999948E-4,-5.499999970E-4,-7.974999957E-3
1.724823257E0,-1.099999994E-3,-5.499999970E-4,-5.774999969E-3
1.727323793E0,-1.374999993E-4,1.649999991E-3,-2.612499986E-3
1.729824166E0,-1.374999993E-4,-1.649999991E-3,-5.499999970E-4
1.732324702E0,-1.374999993E-4,1.649999991E-3,-5.499999970E-4
1.734825089E0,-1.374999993E-4,1.649999991E-3,2.612499986E-3
1.737325625E0,-1.374999993E-4,-1.649999991E-3,1.649999991E-3
1.739826007E0,-1.374999993E-4,5.499999970E-4,5.499999970E-4
1.742326544E0,-1.099999994E-3,-1.649999991E-3,5.499999970E-4
1.744826930E0,9.624999948E-4,-5.499999970E-4,1.649999991E-3
1.747327467E0,-1.374999993E-4,5.499999970E-4,5.499999970E-4
1.749827776E0,-1.374999993E-4,5.499999970E-4,5.499999970E-4
1.752328178E0,9.624999948E-4,5.499999970E-4,-5.499999970E-4
1.754828716E0,2.062499989E-3,-1.649999991E-3,-1.649999991E-3
1.757329103E0,9.624999948E-4,5.499999970E-4,-2.612499986E-3
1.759829639E0,9.624999948E-4,-1.649999991E-3,-2.612499986E-3
1.762330016E0,-1.374999993E-4,1.649999991E-3,-3.712499980E-3
1.764830553E0,-1.374999993E-4,-1.649999991E-3,-2.612499986E-3
1.767330939E0,9.624999948E-4,-5.499999970E-4,-2.612499986E-3
1.769831476E0,-1.099999994E-3,-1.649999991E-3,-5.499999970E-4
1.772331858E0,9.624999948E-4,5.499999970E-4,-1.649999991E-3
1.774832395E0,2.062499989E-3,1.649999991E-3,-1.649999991E-3
1.777332781E0,-1.374999993E-4,5.499999970E-4,-2.612499986E-3
1.779833318E0,-1.374999993E-4,-5.499999970E-4,-2.612499986E-3
1.782333718E0,-1.374999993E-4,1.649999991E-3,-3.712499980E-3
1.784834255E0,-1.374999993E-4,-5.499999970E-4,-2.612499986E-3
1.787334565E0,-1.374999993E-4,-5.499999970E-4,-2.612499986E-3
1.789834947E0,9.624999948E-4,5.499999970E-4,-5.774999969E-3
1.792335500E0,-1.374999993E-4,-5.499999970E-4,-5.774999969E-3
1.794835886E0,-1.099999994E-3,5.499999970E-4,-9.074999951E-3
1.797336423E0,9.624999948E-4,-5.499999970E-4,-9.074999951E-3
1.799836809E0,-1.099999994E-3,-5.499999970E-4,-1.113750041E-2
1.802337361E0,-2.199999988E-3,5.499999970E-4,-1.113750041E-2
1.804837747E0,-1.374999993E-4,5.499999970E-4,-1.223750040E-2
1.807338055E0,9.624999948E-4,-5.499999970E-4,-1.333750039E-2
1.809838592E0,9.624999948E-4,-5.499999970E-4,-1.539999992E-2
1.812338987E0,9.624999948E-4,5.499999970E-4,-1.333750039E-2
1.814839524E0,-1.374999993E-4,5.499999970E-4,-1.539999992E-2
1.817339910E0,-1.374999993E-4,-5.499999970E-4,-1.333750039E-2
1.819840447E0,-1.099999994E-3,5.499999970E-4,-1.223750040E-2
1.822340833E0,-1.374999993E-4,5.499999970E-4,-1.223750040E-2
1.824841385E0,9.624999948E-4,-5.499999970E-4,-1.113750041E-2
1.827341772E0,-1.374999993E-4,5.499999970E-4,-1.223750040E-2
1.829842308E0,-1.374999993E-4,1.649999991E-3,-1.003750041E-2
1.832342695E0,-1.374999993E-4,-5.499999970E-4,-9.074999951E-3
1.834843226E0,-1.099999994E-3,5.499999970E-4,-7.974999957E-3
1.837343613E0,-1.099999994E-3,-5.499999970E-4,-1.113750041E-2
1.839844149E0,9.624999948E-4,-5.499999970E-4,-9.074999951E-3
1.842344536E0,-1.374999993E-4,-2.612499986E-3,-9.074999951E-3
1.844845072E0,-1.374999993E-4,-5.499999970E-4,-9.074999951E-3
1.847345391E0,9.624999948E-4,5.499999970E-4,-1.003750041E-2
1.849845774E0,-2.199999988E-3,5.499999970E-4,-9.074999951E-3
1.852346312E0,-1.374999993E-4,5.499999970E-4,-9.074999951E-3
1.854846699E0,-1.374999993E-4,5.499999970E-4,-6.874999963E-3
1.857347231E0,-1.374999993E-4,-5.499999970E-4,-5.774999969E-3
1.859847618E0,9.624999948E-4,-5.499999970E-4,-4.812499974E-3
1.862348154E0,-1.374999993E-4,5.499999970E-4,-2.612499986E-3
1.864848464E0,-1.374999993E-4,-5.499999970E-4,-2.612499986E-3
1.867348847E0,-1.374999993E-4,5.499999970E-4,-5.499999970E-4
1.869849385E0,9.624999948E-4,-5.499999970E-4,5.499999970E-4
1.872349772E0,9.624999948E-4,-5.499999970E-4,2.612499986E-3
1.874850308E0,9.624999948E-4,-5.499999970E-4,5.912499968E-3
1.877350695E0,2.062499989E-3,1.649999991E-3,6.874999963E-3
1.879851231E0,9.624999948E-4,-1.649999991E-3,1.017499994E-2
1.882351618E0,-1.374999993E-4,5.499999970E-4,1.113750041E-2
1.884852154E0,-1.374999993E-4,-5.499999970E-4,1.333750039E-2
1.887352541E0,9.624999948E-4,5.499999970E-4,1.223750040E-2
1.889853077E0,9.624999948E-4,5.499999970E-4,1.443750039E-2
1.892353464E0,9.624999948E-4,-5.499999970E-4,1.539999992E-2
1.894854000E0,2.062499989E-3,5.499999970E-4,1.539999992E-2
1.897354387E0,-1.374999993E-4,1.649999991E-3,1.539999992E-2
1.899854933E0,9.624999948E-4,5.499999970E-4,1.759999990E-2
1.902355319E0,9.624999948E-4,5.499999970E-4,1.759999990E-2
1.904855627E0,2.062499989E-3,5.499999970E-4,1.649999991E-2
1.907356163E0,-1.374999993E-4,5.499999970E-4,1.869999990E-2
1.909856564E0,9.624999948E-4,-1.649999991E-3,1.759999990E-2
1.912357100E0,9.624999948E-4,1.649999991E-3,1.759999990E-2
1.914857487E0,2.062499989E-3,5.499999970E-4,1.966249943E-2
1.917358024E0,2.062499989E-3,5.499999970E-4,1.869999990E-2
1.919858410E0,2.062499989E-3,-2.612499986E-3,1.649999991E-2
1.922358924E0,9.624999948E-4,-1.649999991E-3,1.759999990E-2
1.924859310E0,9.624999948E-4,5.499999970E-4,1.539999992E-2
1.927359618E0,-1.374999993E-4,5.499999970E-4,1.443750039E-2
1.929860231E0,9.624999948E-4,-5.499999970E-4,1.443750039E-2
1.932360554E0,9.624999948E-4,-5.499999970E-4,1.223750040E-2
1.934861167E0,-1.374999993E-4,1.649999991E-3,1.017499994E-2
1.937361477E0,9.624999948E-4,-1.649999991E-3,9.074999951E-3
1.939862091E0,-1.374999993E-4,5.499999970E-4,5.912499968E-3
1.942362377E0,9.624999948E-4,-1.649999991E-3,2.612499986E-3
1.944862914E0,-1.374999993E-4,5.499999970E-4,-5.499999970E-4
1.947363300E0,-1.374999993E-4,5.499999970E-4,-1.649999991E-3
1.949863837E0,9.624999948E-4,-5.499999970E-4,-3.712499980E-3
1.952364223E0,-1.374999993E-4,5.499999970E-4,-6.874999963E-3
1.954864746E0,-1.374999993E-4,-5.499999970E-4,-9.074999951E-3
1.957365132E0,9.624999948E-4,-5.499999970E-4,-1.223750040E-2
1.959865669E0,-1.099999994E-3,-1.649999991E-3,-1.223750040E-2
1.962366056E0,-1.099999994E-3,5.499999970E-4,-1.429999992E-2
1.964866339E0,-1.374999993E-4,-1.649999991E-3,-1.759999990E-2
1.967366876E0,9.624999948E-4,-5.499999970E-4,-1.966249943E-2
1.969867262E0,-1.099999994E-3,-5.499999970E-4,-1.966249943E-2
1.972367799E0,-1.099999994E-3,-5.499999970E-4,-2.186249942E-2
1.974868185E0,-1.374999993E-4,-5.499999970E-4,-2.502499893E-2
1.977368722E0,-1.099999994E-3,5.499999970E-4,-2.392499894E-2
1.979869109E0,-2.199999988E-3,-5.499999970E-4,-2.708750032E-2
1.982369645E0,-2.199999988E-3,-5.499999970E-4,-2.818750031E-2
1.984870032E0,-1.374999993E-4,-5.499999970E-4,-3.038750030E-2
1.987370563E0,-1.099999994E-3,5.499999970E-4,-3.038750030E-2
1.989870950E0,-1.099999994E-3,5.499999970E-4,-3.038750030E-2
1.992371486E0,-2.199999988E-3,-1.649999991E-3,-3.355000168E-2
1.994871796E0,9.624999948E-4,-5.499999970E-4,-3.355000168E-2
1.997372395E0,-2.199999988E-3,-5.499999970E-4,-3.355000168E-2
1.999872705E0,-2.199999988E-3,-5.499999970E-4,-3.355000168E-2
2.002373090E0,-3.299999982E-3,-1.649999991E-3,-3.355000168E-2
2.004873626E0,-1.099999994E-3,-5.499999970E-4,-3.451250121E-2
2.007374013E0,-1.099999994E-3,-5.499999970E-4,-3.451250121E-2
2.009874553E0,-2.199999988E-3,1.649999991E-3,-3.244999796E-2
2.012374940E0,-1.099999994E-3,-5.499999970E-4,-3.135000169E-2
2.014875476E0,-2.199999988E-3,-5.499999970E-4,-3.355000168E-2
2.017375863E0,-1.099999994E-3,-5.499999970E-4,-3.355000168E-2
2.019876399E0,-1.099999994E-3,5.499999970E-4,-3.355000168E-2
2.022376714E0,-1.374999993E-4,-5.499999970E-4,-3.451250121E-2
2.024877097E0,-2.199999988E-3,5.499999970E-4,-3.244999796E-2
2.027377635E0,-2.199999988E-3,-5.499999970E-4,-3.038750030E-2
2.029878022E0,-3.299999982E-3,5.499999970E-4,-3.355000168E-2
2.032378563E0,-1.099999994E-3,5.499999970E-4,-3.135000169E-2
2.034878950E0,-2.199999988E-3,-5.499999970E-4,-3.038750030E-2
2.037379486E0,-1.099999994E-3,5.499999970E-4,-2.928750031E-2
2.039879873E0,-1.099999994E-3,-5.499999970E-4,-3.038750030E-2
2.042380414E0,-1.374999993E-4,-5.499999970E-4,-2.818750031E-2
2.044880801E0,-1.099999994E-3,1.649999991E-3,-2.612499893E-2
2.047381109E0,-2.199999988E-3,5.499999970E-4,-2.392499894E-2
2.049881722E0,-2.199999988E-3,5.499999970E-4,-2.392499894E-2
2.052382027E0,-1.374999993E-4,-1.649999991E-3,-2.076249942E-2
2.054882640E0,-1.374999993E-4,5.499999970E-4,-1.649999991E-2
2.057382950E0,-1.374999993E-4,-1.649999991E-3,-1.429999992E-2
2.059883563E0,-1.374999993E-4,5.499999970E-4,-1.333750039E-2
2.062383873E0,9.624999948E-4,5.499999970E-4,-1.333750039E-2
2.064884399E0,-1.374999993E-4,5.499999970E-4,-7.974999957E-3
2.067384786E0,-1.374999993E-4,5.499999970E-4,-4.812499974E-3
2.069885323E0,9.624999948E-4,-5.499999970E-4,-2.612499986E-3
2.072385709E0,-1.374999993E-4,5.499999970E-4,-5.499999970E-4
2.074886260E0,-1.374999993E-4,5.499999970E-4,-5.499999970E-4
2.077386646E0,-1.374999993E-4,5.499999970E-4,3.712499980E-3
2.079887183E0,9.624999948E-4,-1.649999991E-3,5.912499968E-3
2.082387569E0,9.624999948E-4,5.499999970E-4,6.874999963E-3
2.084887877E0,-1.374999993E-4,5.499999970E-4,1.113750041E-2
2.087388418E0,3.162499983E-3,-5.499999970E-4,1.539999992E-2
2.089888805E0,9.624999948E-4,-5.499999970E-4,1.759999990E-2
2.092389342E0,9.624999948E-4,5.499999970E-4,2.076249942E-2
2.094889728E0,2.062499989E-3,5.499999970E-4,2.502499893E-2
2.097390285E0,2.062499989E-3,5.499999970E-4,2.612499893E-2
2.099890671E0,2.062499989E-3,1.649999991E-3,3.038750030E-2
2.102391208E0,2.062499989E-3,-5.499999970E-4,3.038750030E-2
2.104891517E0,2.062499989E-3,5.499999970E-4,3.561250120E-2
2.107392131E0,9.624999948E-4,5.499999970E-4,3.464999795E-2
2.109892436E0,2.062499989E-3,5.499999970E-4,3.671250120E-2
2.112393049E0,3.162499983E-3,5.499999970E-4,3.781250119E-2
2.114893359E0,2.062499989E-3,5.499999970E-4,3.781250119E-2
2.117393972E0,3.162499983E-3,1.649999991E-3,3.891250119E-2
2.119894296E0,9.624999948E-4,-1.649999991E-3,3.781250119E-2
2.122394909E0,2.062499989E-3,5.499999970E-4,3.781250119E-2
2.124895219E0,9.624999948E-4,5.499999970E-4,3.891250119E-2
2.127395603E0,9.624999948E-4,5.499999970E-4,3.781250119E-2
2.129896140E0,2.062499989E-3,5.499999970E-4,3.781250119E-2
2.132396527E0,9.624999948E-4,-5.499999970E-4,3.561250120E-2
2.134897063E0,2.062499989E-3,5.499999970E-4,3.561250120E-2
2.137397450E0,2.062499989E-3,5.499999970E-4,3.781250119E-2
2.139897991E0,9.624999948E-4,5.499999970E-4,3.561250120E-2
2.142398378E0,-1.374999993E-4,-5.499999970E-4,3.561250120E-2
2.144898685E0,-1.374999993E-4,5.499999970E-4,3.355000168E-2
2.147399222E0,9.624999948E-4,5.499999970E-4,3.355000168E-2
2.149899608E0,2.062499989E-3,1.649999991E-3,3.355000168E-2
2.152400159E0,2.062499989E-3,5.499999970E-4,3.135000169E-2
2.154900546E0,2.062499989E-3,5.499999970E-4,3.038750030E-2
2.157401082E0,9.624999948E-4,5.499999970E-4,2.708750032E-2
2.159901469E0,2.062499989E-3,-5.499999970E-4,2.612499893E-2
2.162402005E0,9.624999948E-4,1.649999991E-3,2.392499894E-2
2.164902397E0,9.624999948E-4,5.499999970E-4,2.282499894E-2
2.167402933E0,9.624999948E-4,-1.649999991E-3,1.869999990E-2
2.169903320E0,-1.374999993E-4,-5.499999970E-4,1.869999990E-2
2.172403856E0,9.624999948E-4,5.499999970E-4,1.443750039E-2
2.174904243E0,2.062499989E-3,5.499999970E-4,1.333750039E-2
2.177404551E0,9.624999948E-4,-5.499999970E-4,9.074999951E-3
2.179905164E0,-1.374999993E-4,5.499999970E-4,6.874999963E-3
2.182405474E0,9.624999948E-4,-1.649999991E-3,6.874999963E-3
2.184906010E0,-1.374999993E-4,-5.499999970E-4,3.712499980E-3
2.187406401E0,2.062499989E-3,-1.649999991E-3,3.712499980E-3
2.189906937E0,-1.374999993E-4,5.499999970E-4,5.499999970E-4
2.192407324E0,-1.099999994E-3,5.499999970E-4,-5.499999970E-4
2.194907860E0,-1.374999993E-4,-5.499999970E-4,-2.612499986E-3
2.197408243E0,-1.374999993E-4,-1.649999991E-3,-3.712499980E-3
2.199908779E0,-1.099999994E-3,5.499999970E-4,-6.874999963E-3
2.202409166E0,-1.374999993E-4,-5.499999970E-4,-6.874999963E-3
2.204909474E0,-1.099999994E-3,5.499999970E-4,-7.974999957E-3
2.207410019E0,9.624999948E-4,-1.649999991E-3,-1.003750041E-2
2.209910406E0,9.624999948E-4,-5.499999970E-4,-1.223750040E-2
2.212410942E0,-1.099999994E-3,5.499999970E-4,-1.429999992E-2
2.214911329E0,-1.099999994E-3,5.499999970E-4,-1.649999991E-2
2.217411875E0,-1.099999994E-3,-5.499999970E-4,-1.856249943E-2
2.219912262E0,-1.099999994E-3,-5.499999970E-4,-1.856249943E-2
2.222412798E0,-1.099999994E-3,5.499999970E-4,-2.186249942E-2
2.224913185E0,-1.099999994E-3,5.499999970E-4,-2.076249942E-2
2.227413727E0,-1.099999994E-3,5.499999970E-4,-2.392499894E-2
2.229914113E0,-1.374999993E-4,-5.499999970E-4,-2.502499893E-2
2.232414650E0,-1.099999994E-3,-5.499999970E-4,-2.612499893E-2
2.234915036E0,-1.099999994E-3,5.499999970E-4,-2.282499894E-2
2.237415573E0,-1.374999993E-4,-5.499999970E-4,-2.502499893E-2
2.239915959E0,-1.099999994E-3,5.499999970E-4,-2.612499893E-2
2.242416496E0,-1.374999993E-4,-5.499999970E-4,-2.502499893E-2
2.244916882E0,-1.099999994E-3,-5.499999970E-4,-2.282499894E-2
2.247417190E0,-1.099999994E-3,1.649999991E-3,-2.186249942E-2
2.249917717E0,9.624999948E-4,-5.499999970E-4,-2.282499894E-2
2.252418103E0,-1.099999994E-3,1.649999991E-3,-2.186249942E-2
2.254918640E0,-1.099999994E-3,-5.499999970E-4,-2.186249942E-2
2.257419026E0,-1.374999993E-4,5.499999970E-4,-2.186249942E-2
2.259919568E0,-1.099999994E-3,-1.649999991E-3,-2.076249942E-2
2.262419954E0,9.624999948E-4,5.499999970E-4,-2.282499894E-2
2.264920491E0,-1.099999994E-3,5.499999970E-4,-2.076249942E-2
2.267420801E0,9.624999948E-4,-5.499999970E-4,-1.966249943E-2
2.269921163E0,9.624999948E-4,5.499999970E-4,-2.186249942E-2
2.272421702E0,-2.199999988E-3,-1.649999991E-3,-2.076249942E-2
2.274922088E0,-1.374999993E-4,-1.649999991E-3,-1.856249943E-2
2.277422625E0,-1.099999994E-3,-5.499999970E-4,-2.076249942E-2
2.279923016E0,-2.199999988E-3,5.499999970E-4,-1.856249943E-2
2.282423553E0,-1.374999993E-4,-5.499999970E-4,-1.759999990E-2
2.284923939E0,-1.374999993E-4,-1.649999991E-3,-1.539999992E-2
2.287424476E0,-1.374999993E-4,5.499999970E-4,-1.333750039E-2
2.289924863E0,9.624999948E-4,-1.649999991E-3,-1.429999992E-2
2.292425385E0,-1.099999994E-3,-5.499999970E-4,-1.223750040E-2
2.294925772E0,9.624999948E-4,-5.499999970E-4,-1.003750041E-2
2.297426308E0,-1.099999994E-3,-1.649999991E-3,-9.074999951E-3
2.299926695E0,-1.099999994E-3,5.499999970E-4,-9.074999951E-3
2.302427231E0,-1.374999993E-4,5.499999970E-4,-6.874999963E-3
2.304927618E0,2.062499989E-3,5.499999970E-4,-7.974999957E-3
2.307428154E0,-1.099999994E-3,1.649999991E-3,-6.874999963E-3
2.309928464E0,9.624999948E-4,5.499999970E-4,-5.774999969E-3
2.312428837E0,9.624999948E-4,5.499999970E-4,-4.812499974E-3
2.314929375E0,9.624999948E-4,5.499999970E-4,-5.774999969E-3
2.317429762E0,9.624999948E-4,5.499999970E-4,-5.774999969E-3
2.319930298E0,9.624999948E-4,-5.499999970E-4,-3.712499980E-3
2.322430685E0,-1.374999993E-4,-5.499999970E-4,-3.712499980E-3
2.324931207E0,-1.099999994E-3,1.649999991E-3,-5.499999970E-4
2.327431594E0,9.624999948E-4,5.499999970E-4,-5.499999970E-4
2.329931902E0,9.624999948E-4,5.499999970E-4,-1.649999991E-3
2.332432438E0,-1.374999993E-4,-1.649999991E-3,1.649999991E-3
2.334932825E0,9.624999948E-4,1.649999991E-3,5.912499968E-3
2.337433361E0,-1.374999993E-4,1.649999991E-3,5.912499968E-3
2.339933748E0,-1.374999993E-4,5.499999970E-4,6.874999963E-3
2.342434284E0,9.624999948E-4,-5.499999970E-4,1.017499994E-2
2.344934671E0,9.624999948E-4,5.499999970E-4,1.113750041E-2
2.347435207E0,-1.374999993E-4,-5.499999970E-4,1.333750039E-2
2.349935594E0,2.062499989E-3,5.499999970E-4,1.539999992E-2
2.352436130E0,9.624999948E-4,-5.499999970E-4,1.759999990E-2
2.354936496E0,-1.374999993E-4,5.499999970E-4,1.539999992E-2
2.357437033E0,-1.374999993E-4,1.649999991E-3,1.759999990E-2
2.359937419E0,2.062499989E-3,5.499999970E-4,1.966249943E-2
2.362437956E0,9.624999948E-4,-5.499999970E-4,2.076249942E-2
2.364938314E0,-1.374999993E-4,1.649999991E-3,2.186249942E-2
2.367438851E0,9.624999948E-4,-1.649999991E-3,2.076249942E-2
2.369939237E0,-1.099999994E-3,5.499999970E-4,2.186249942E-2
2.372439545E0,9.624999948E-4,-5.499999970E-4,2.502499893E-2
2.374940080E0,9.624999948E-4,1.649999991E-3,2.708750032E-2
2.377440467E0,-1.374999993E-4,-1.649999991E-3,2.612499893E-2
2.379941004E0,9.624999948E-4,5.499999970E-4,2.818750031E-2
2.382441390E0,2.062499989E-3,5.499999970E-4,2.818750031E-2
2.384941928E0,-1.374999993E-4,5.499999970E-4,2.928750031E-2
2.387442314E0,3.162499983E-3,5.499999970E-4,3.135000169E-2
2.389942851E0,3.162499983E-3,1.649999991E-3,3.038750030E-2
2.392443160E0,2.062499989E-3,5.499999970E-4,3.355000168E-2
2.394943543E0,2.062499989E-3,1.649999991E-3,3.355000168E-2
2.397444086E0,2.062499989E-3,5.499999970E-4,3.464999795E-2
2.399944472E0,2.062499989E-3,5.499999970E-4,3.464999795E-2
2.402445009E0,2.062499989E-3,-5.499999970E-4,3.464999795E-2
2.404945395E0,-1.374999993E-4,5.499999970E-4,3.355000168E-2
2.407445942E0,3.162499983E-3,5.499999970E-4,3.244999796E-2
2.409946328E0,2.062499989E-3,2.612499986E-3,3.244999796E-2
2.412446865E0,9.624999948E-4,-5.499999970E-4,3.135000169E-2
2.414947251E0,9.624999948E-4,5.499999970E-4,3.355000168E-2
2.417447773E0,-1.374999993E-4,5.499999970E-4,3.135000169E-2
2.419948160E0,9.624999948E-4,-5.499999970E-4,3.038750030E-2
2.422448696E0,9.624999948E-4,5.499999970E-4,3.244999796E-2
2.424949083E0,2.062499989E-3,1.649999991E-3,3.244999796E-2
2.427449600E0,-1.374999993E-4,-5.499999970E-4,3.038750030E-2
2.429949987E0,2.062499989E-3,5.499999970E-4,3.135000169E-2
2.432450523E0,2.062499989E-3,-5.499999970E-4,3.038750030E-2
2.434950833E0,9.624999948E-4,5.499999970E-4,3.038750030E-2
2.437451215E0,2.062499989E-3,5.499999970E-4,3.038750030E-2
2.439951773E0,9.624999948E-4,-5.499999970E-4,2.818750031E-2
2.442452160E0,2.062499989E-3,-5.499999970E-4,3.135000169E-2
2.444952696E0,2.062499989E-3,5.499999970E-4,2.928750031E-2
2.447453083E0,2.062499989E-3,5.499999970E-4,2.818750031E-2
2.449953639E0,3.162499983E-3,5.499999970E-4,2.612499893E-2
2.452454026E0,9.624999948E-4,-5.499999970E-4,2.612499893E-2
2.454954333E0,9.624999948E-4,5.499999970E-4,2.708750032E-2
2.457454870E0,-1.374999993E-4,5.499999970E-4,2.392499894E-2
2.459955281E0,9.624999948E-4,5.499999970E-4,2.392499894E-2
2.462455817E0,-1.374999993E-4,5.499999970E-4,2.186249942E-2
2.464956204E0,-1.374999993E-4,5.499999970E-4,1.966249943E-2
2.467456740E0,9.624999948E-4,5.499999970E-4,1.759999990E-2
2.469957127E0,9.624999948E-4,-5.499999970E-4,1.869999990E-2
2.472457662E0,-1.374999993E-4,1.649999991E-3,1.539999992E-2
2.474958049E0,9.624999948E-4,-5.499999970E-4,1.443750039E-2
2.477458585E0,9.624999948E-4,5.499999970E-4,1.333750039E-2
2.479958972E0,-1.374999993E-4,5.499999970E-4,1.113750041E-2
2.482459523E0,-1.374999993E-4,-1.649999991E-3,1.017499994E-2
2.484959910E0,9.624999948E-4,-5.499999970E-4,7.974999957E-3
2.487460446E0,-1.099999994E-3,5.499999970E-4,6.874999963E-3
2.489960833E0,9.624999948E-4,2.612499986E-3,4.812499974E-3
2.492461380E0,9.624999948E-4,5.499999970E-4,3.712499980E-3
2.494961766E0,-1.374999993E-4,-5.499999970E-4,5.499999970E-4
2.497462303E0,-1.374999993E-4,-5.499999970E-4,-5.499999970E-4
2.499962612E0,-2.199999988E-3,5.499999970E-4,-1.649999991E-3
2.502463009E0,-1.374999993E-4,5.499999970E-4,-4.812499974E-3
2.504963547E0,-1.374999993E-4,-1.649999991E-3,-5.774999969E-3
2.507463934E0,-1.099999994E-3,5.499999970E-4,-7.974999957E-3
2.509964470E0,-1.099999994E-3,5.499999970E-4,-9.074999951E-3
2.512464857E0,9.624999948E-4,-5.499999970E-4,-1.003750041E-2
2.514965404E0,-1.374999993E-4,-5.499999970E-4,-1.113750041E-2
2.517465790E0,-1.374999993E-4,5.499999970E-4,-1.429999992E-2
2.519966098E0,-1.099999994E-3,-5.499999970E-4,-1.333750039E-2
2.522466634E0,-1.099999994E-3,-5.499999970E-4,-1.539999992E-2
2.524967055E0,-1.099999994E-3,5.499999970E-4,-1.539999992E-2
2.527467591E0,-1.374999993E-4,-5.499999970E-4,-1.649999991E-2
2.529967978E0,-1.099999994E-3,1.649999991E-3,-1.539999992E-2
2.532468515E0,-2.199999988E-3,-5.499999970E-4,-1.759999990E-2
2.534968930E0,-1.374999993E-4,5.499999970E-4,-1.856249943E-2
2.537469467E0,9.624999948E-4,-5.499999970E-4,-1.759999990E-2
2.539969853E0,-1.099999994E-3,1.649999991E-3,-1.759999990E-2
2.542470390E0,-1.374999993E-4,-5.499999970E-4,-1.856249943E-2
2.544970762E0,9.624999948E-4,1.649999991E-3,-1.649999991E-2
2.547471299E0,-1.099999994E-3,5.499999970E-4,-1.333750039E-2
2.549971685E0,-2.199999988E-3,-5.499999970E-4,-1.429999992E-2
2.552472222E0,-1.099999994E-3,1.649999991E-3,-1.223750040E-2
2.554972609E0,-1.099999994E-3,-1.649999991E-3,-1.003750041E-2
2.557473135E0,-1.374999993E-4,-5.499999970E-4,-1.003750041E-2
2.559973522E0,-1.374999993E-4,-5.499999970E-4,-6.874999963E-3
2.562473829E0,9.624999948E-4,5.499999970E-4,-5.774999969E-3
2.564974366E0,9.624999948E-4,-5.499999970E-4,-5.774999969E-3
2.567474762E0,-1.374999993E-4,1.649999991E-3,-1.649999991E-3
2.569975299E0,-1.374999993E-4,5.499999970E-4,5.499999970E-4
2.572475685E0,2.062499989E-3,5.499999970E-4,2.612499986E-3
2.574976222E0,9.624999948E-4,-5.499999970E-4,4.812499974E-3
2.577476609E0,9.624999948E-4,-5.499999970E-4,3.712499980E-3
2.579977145E0,9.624999948E-4,-5.499999970E-4,5.912499968E-3
2.582477532E0,9.624999948E-4,-1.649999991E-3,7.974999957E-3
2.584977839E0,9.624999948E-4,5.499999970E-4,1.017499994E-2
2.587478376E0,9.624999948E-4,5.499999970E-4,1.113750041E-2
2.589978805E0,-1.374999993E-4,-5.499999970E-4,1.113750041E-2
2.592479342E0,-1.374999993E-4,5.499999970E-4,1.113750041E-2
2.594979729E0,9.624999948E-4,-5.499999970E-4,1.443750039E-2
2.597480265E0,2.062499989E-3,5.499999970E-4,1.223750040E-2
2.599980666E0,9.624999948E-4,-5.499999970E-4,1.443750039E-2
2.602481202E0,-1.099999994E-3,-5.499999970E-4,1.223750040E-2
2.604981589E0,-1.374999993E-4,-1.649999991E-3,1.443750039E-2
2.607482125E0,9.624999948E-4,5.499999970E-4,1.333750039E-2
2.609982507E0,-1.374999993E-4,-5.499999970E-4,1.443750039E-2
2.612483043E0,-1.374999993E-4,-5.499999970E-4,1.113750041E-2
2.614983430E0,-1.374999993E-4,-5.499999970E-4,9.074999951E-3
2.617483966E0,9.624999948E-4,5.499999970E-4,1.017499994E-2
2.619984305E0,9.624999948E-4,5.499999970E-4,9.074999951E-3
2.622484841E0,9.624999948E-4,-5.499999970E-4,6.874999963E-3
2.624985151E0,-1.374999993E-4,-5.499999970E-4,6.874999963E-3
2.627485534E0,-1.374999993E-4,1.649999991E-3,2.612499986E-3
2.629986063E0,2.062499989E-3,5.499999970E-4,-5.499999970E-4
2.632486450E0,9.624999948E-4,-1.649999991E-3,-2.612499986E-3
2.634986986E0,9.624999948E-4,5.499999970E-4,-4.812499974E-3
2.637487373E0,-1.099999994E-3,-1.649999991E-3,-6.874999963E-3
2.639987933E0,-1.374999993E-4,5.499999970E-4,-4.812499974E-3
2.642488320E0,-1.374999993E-4,-5.499999970E-4,-9.074999951E-3
2.644988857E0,-1.099999994E-3,5.499999970E-4,-1.003750041E-2
2.647489166E0,9.624999948E-4,5.499999970E-4,-1.113750041E-2
2.649989549E0,-2.199999988E-3,-5.499999970E-4,-1.333750039E-2
2.652490101E0,9.624999948E-4,5.499999970E-4,-1.429999992E-2
2.654990488E0,-1.099999994E-3,5.499999970E-4,-1.539999992E-2
2.657491024E0,-1.099999994E-3,-5.499999970E-4,-1.649999991E-2
2.659991411E0,-2.199999988E-3,-5.499999970E-4,-1.539999992E-2
2.662491937E0,-1.099999994E-3,1.649999991E-3,-1.759999990E-2
2.664992324E0,-2.199999988E-3,-5.499999970E-4,-1.966249943E-2
2.667492861E0,-3.299999982E-3,-5.499999970E-4,-1.966249943E-2
2.669993247E0,-1.099999994E-3,5.499999970E-4,-2.186249942E-2
2.672493760E0,-1.099999994E-3,-1.649999991E-3,-2.282499894E-2
2.674994146E0,9.624999948E-4,5.499999970E-4,-2.076249942E-2
2.677494683E0,-1.374999993E-4,1.649999991E-3,-2.282499894E-2
2.679995069E0,-1.099999994E-3,-5.499999970E-4,-2.392499894E-2
2.682495611E0,-1.099999994E-3,-1.649999991E-3,-2.392499894E-2
2.684995997E0,-1.374999993E-4,-5.499999970E-4,-2.612499893E-2
2.687496534E0,-1.374999993E-4,5.499999970E-4,-2.612499893E-2
2.689996921E0,-1.374999993E-4,-5.499999970E-4,-2.612499893E-2
2.692497228E0,-1.099999994E-3,-5.499999970E-4,-2.818750031E-2
2.694997740E0,-3.299999982E-3,5.499999970E-4,-2.818750031E-2
2.697498126E0,-2.199999988E-3,5.499999970E-4,-2.818750031E-2
2.699998663E0,-2.199999988E-3,-1.649999991E-3,-2.928750031E-2
2.702499049E0,-1.099999994E-3,-5.499999970E-4,-2.708750032E-2
2.704999581E0,-2.199999988E-3,-5.499999970E-4,-2.818750031E-2
2.707499967E0,-1.099999994E-3,-5.499999970E-4,-2.928750031E-2
2.710000504E0,-1.099999994E-3,-5.499999970E-4,-2.928750031E-2
2.712500814E0,-1.099999994E-3,-5.499999970E-4,-2.708750032E-2
2.715001196E0,-1.099999994E-3,-1.649999991E-3,-2.818750031E-2
2.717501725E0,-2.199999988E-3,5.499999970E-4,-3.038750030E-2
2.720002111E0,-3.299999982E-3,-5.499999970E-4,-3.135000169E-2
2.722502648E0,-1.099999994E-3,1.649999991E-3,-3.244999796E-2
2.725003034E0,-1.099999994E-3,-5.499999970E-4,-3.355000168E-2
2.727503571E0,-2.199999988E-3,1.649999991E-3,-3.135000169E-2
2.730003958E0,-1.099999994E-3,5.499999970E-4,-3.451250121E-2
2.732504494E0,-2.199999988E-3,-5.499999970E-4,-3.561250120E-2
2.735004881E0,-3.299999982E-3,5.499999970E-4,-3.671250120E-2
2.737505403E0,-1.099999994E-3,5.499999970E-4,-3.781250119E-2
2.740005790E0,-1.374999993E-4,5.499999970E-4,-3.877500072E-2
2.742506326E0,-1.099999994E-3,-5.499999970E-4,-3.781250119E-2
2.745006713E0,-1.099999994E-3,-5.499999970E-4,-3.987500072E-2
2.747507244E0,-1.099999994E-3,-5.499999970E-4,-3.987500072E-2
2.750007631E0,-2.199999988E-3,5.499999970E-4,-3.987500072E-2
2.752508167E0,-1.099999994E-3,5.499999970E-4,-3.987500072E-2
2.755008477E0,-1.099999994E-3,5.499999970E-4,-3.987500072E-2
2.757508860E0,-1.099999994E-3,-5.499999970E-4,-3.987500072E-2
2.760009370E0,-1.099999994E-3,-1.649999991E-3,-3.781250119E-2
2.762509757E0,-1.374999993E-4,5.499999970E-4,-3.781250119E-2
2.765010293E0,-2.199999988E-3,-5.499999970E-4,-3.451250121E-2
2.767510680E0,-2.199999988E-3,-5.499999970E-4,-3.671250120E-2
2.770011206E0,-2.199999988E-3,-1.649999991E-3,-3.561250120E-2
2.772511593E0,-3.299999982E-3,-5.499999970E-4,-3.451250121E-2
2.775012129E0,-1.099999994E-3,-5.499999970E-4,-3.244999796E-2
2.777512439E0,-2.199999988E-3,-5.499999970E-4,-3.244999796E-2
2.780013063E0,-2.199999988E-3,-5.499999970E-4,-3.135000169E-2
2.782513372E0,-1.099999994E-3,-5.499999970E-4,-3.038750030E-2
2.785013757E0,-2.199999988E-3,-5.499999970E-4,-2.502499893E-2
2.787514293E0,-1.099999994E-3,5.499999970E-4,-2.612499893E-2
2.790014680E0,-1.099999994E-3,5.499999970E-4,-2.282499894E-2
2.792515249E0,-1.099999994E-3,-5.499999970E-4,-1.966249943E-2
2.795015636E0,-1.374999993E-4,-5.499999970E-4,-1.539999992E-2
2.797516172E0,-1.374999993E-4,5.499999970E-4,-1.333750039E-2
2.800016559E0,-2.199999988E-3,-5.499999970E-4,-1.003750041E-2
2.802517096E0,-1.099999994E-3,-5.499999970E-4,-4.812499974E-3
2.805017482E0,9.624999948E-4,5.499999970E-4,-1.649999991E-3
2.807518019E0,-1.374999993E-4,5.499999970E-4,1.649999991E-3
2.810018405E0,-1.374999993E-4,-5.499999970E-4,5.912499968E-3
2.812518927E0,9.624999948E-4,5.499999970E-4,9.074999951E-3
2.815019313E0,2.062499989E-3,-5.499999970E-4,1.223750040E-2
2.817519621E0,2.062499989E-3,5.499999970E-4,1.443750039E-2
2.820020158E0,-1.374999993E-4,-1.649999991E-3,1.759999990E-2
2.822520544E0,2.062499989E-3,5.499999970E-4,2.186249942E-2
2.825021058E0,3.162499983E-3,-5.499999970E-4,2.186249942E-2
2.827521444E0,9.624999948E-4,1.649999991E-3,2.708750032E-2
2.830021981E0,9.624999948E-4,5.499999970E-4,2.818750031E-2
2.832522367E0,9.624999948E-4,-5.499999970E-4,2.818750031E-2
2.835022904E0,2.062499989E-3,5.499999970E-4,3.355000168E-2
2.837523290E0,2.062499989E-3,-5.499999970E-4,3.355000168E-2
2.840023598E0,2.062499989E-3,5.499999970E-4,3.671250120E-2
2.842524212E0,2.062499989E-3,-5.499999970E-4,4.097500071E-2
2.845024521E0,2.062499989E-3,5.499999970E-4,4.097500071E-2
2.847525130E0,4.124999978E-3,5.499999970E-4,4.317500070E-2
2.850025439E0,3.162499983E-3,1.649999991E-3,4.413750023E-2
2.852525976E0,3.162499983E-3,-5.499999970E-4,4.633750021E-2
2.855026362E0,4.124999978E-3,-5.499999970E-4,4.839999974E-2
2.857526899E0,3.162499983E-3,5.499999970E-4,5.059999973E-2
2.860027285E0,3.162499983E-3,-1.649999991E-3,5.059999973E-2
2.862527822E0,4.124999978E-3,5.499999970E-4,4.949999973E-2
2.865028209E0,2.062499989E-3,5.499999970E-4,5.059999973E-2
2.867528745E0,9.624999948E-4,-5.499999970E-4,5.059999973E-2
2.870029127E0,3.162499983E-3,-5.499999970E-4,4.949999973E-2
2.872529663E0,9.624999948E-4,-1.649999991E-3,4.743750021E-2
2.875030050E0,2.062499989E-3,1.649999991E-3,4.743750021E-2
2.877530586E0,2.062499989E-3,5.499999970E-4,4.633750021E-2
2.880030973E0,2.062499989E-3,5.499999970E-4,4.523750022E-2
2.882531285E0,3.162499983E-3,5.499999970E-4,4.523750022E-2
2.885031821E0,2.062499989E-3,-5.499999970E-4,4.317500070E-2
2.887532208E0,2.062499989E-3,-5.499999970E-4,3.987500072E-2
2.890032744E0,3.162499983E-3,5.499999970E-4,3.987500072E-2
2.892533131E0,2.062499989E-3,5.499999970E-4,3.987500072E-2
2.895033677E0,2.062499989E-3,-5.499999970E-4,3.781250119E-2
2.897534064E0,9.624999948E-4,5.499999970E-4,3.561250120E-2
2.900034600E0,2.062499989E-3,5.499999970E-4,3.355000168E-2
2.902534987E0,3.162499983E-3,5.499999970E-4,3.561250120E-2
2.905035537E0,2.062499989E-3,-5.499999970E-4,3.135000169E-2
2.907535847E0,2.062499989E-3,5.499999970E-4,2.928750031E-2
2.910036460E0,3.162499983E-3,5.499999970E-4,2.818750031E-2
2.912536770E0,9.624999948E-4,5.499999970E-4,2.708750032E-2
2.915037399E0,9.624999948E-4,-5.499999970E-4,2.392499894E-2
2.917537708E0,9.624999948E-4,5.499999970E-4,2.282499894E-2
2.920038093E0,-1.374999993E-4,5.499999970E-4,1.966249943E-2
2.922538629E0,2.062499989E-3,-5.499999970E-4,1.966249943E-2
2.925039011E0,2.062499989E-3,5.499999970E-4,1.649999991E-2
2.927539547E0,9.624999948E-4,-5.499999970E-4,1.539999992E-2
2.930039934E0,9.624999948E-4,5.499999970E-4,1.113750041E-2
2.932540480E0,9.624999948E-4,-5.499999970E-4,1.017499994E-2
2.935040867E0,2.062499989E-3,1.649999991E-3,6.874999963E-3
2.937541404E0,-1.374999993E-4,5.499999970E-4,4.812499974E-3
2.940041790E0,-1.099999994E-3,-5.499999970E-4,5.912499968E-3
2.942542327E0,-1.374999993E-4,-5.499999970E-4,3.712499980E-3
2.945042645E0,-1.374999993E-4,-5.499999970E-4,-5.499999970E-4
2.947543259E0,-1.374999993E-4,5.499999970E-4,-1.649999991E-3
2.950043568E0,-1.374999993E-4,-5.499999970E-4,-4.812499974E-3
2.952543953E0,-1.374999993E-4,5.499999970E-4,-5.774999969E-3
2.955044490E0,9.624999948E-4,-5.499999970E-4,-5.774999969E-3
2.957544866E0,-1.374999993E-4,5.499999970E-4,-9.074999951E-3
2.960045403E0,-2.199999988E-3,-5.499999970E-4,-1.113750041E-2
2.962545789E0,-1.099999994E-3,5.499999970E-4,-1.429999992E-2
2.965046326E0,-1.099999994E-3,1.649999991E-3,-1.759999990E-2
2.967546708E0,-1.374999993E-4,-1.649999991E-3,-1.856249943E-2
2.970047016E0,-2.199999988E-3,-5.499999970E-4,-2.282499894E-2
2.972547553E0,-1.099999994E-3,5.499999970E-4,-2.282499894E-2
2.975047939E0,-1.099999994E-3,-5.499999970E-4,-2.502499893E-2
2.977548557E0,-1.374999993E-4,-1.649999991E-3,-2.818750031E-2
2.980048866E0,-1.374999993E-4,-5.499999970E-4,-3.244999796E-2
2.982549403E0,-2.199999988E-3,-1.649999991E-3,-3.355000168E-2
2.985049789E0,-2.199999988E-3,5.499999970E-4,-3.671250120E-2
2.987550322E0,-3.299999982E-3,-5.499999970E-4,-3.671250120E-2
2.990050708E0,-2.199999988E-3,-5.499999970E-4,-3.987500072E-2
2.992551245E0,-1.099999994E-3,-5.499999970E-4,-4.097500071E-2
2.995051631E0,-2.199999988E-3,5.499999970E-4,-4.413750023E-2
2.997552163E0,-2.199999988E-3,-5.499999970E-4,-4.523750022E-2
3.000052550E0,-2.199999988E-3,-1.649999991E-3,-4.633750021E-2
3.002553086E0,-2.199999988E-3,5.499999970E-4,-4.839999974E-2
3.005053473E0,-2.199999988E-3,5.499999970E-4,-5.059999973E-2
3.007554009E0,-3.299999982E-3,5.499999970E-4,-5.156249925E-2
3.010054410E0,-2.199999988E-3,5.499999970E-4,-5.266249925E-2
3.012554717E0,-4.399999976E-3,5.499999970E-4,-5.266249925E-2
3.015055254E0,-4.399999976E-3,-1.649999991E-3,-5.376249924E-2
3.017555641E0,-3.299999982E-3,5.499999970E-4,-5.156249925E-2
3.020056187E0,-2.199999988E-3,-5.499999970E-4,-5.266249925E-2
3.022556574E0,-2.199999988E-3,-5.499999970E-4,-5.156249925E-2
3.025057110E0,-3.299999982E-3,-5.499999970E-4,-4.949999973E-2
3.027557497E0,-4.399999976E-3,5.499999970E-4,-4.839999974E-2
3.030058018E0,-2.199999988E-3,1.649999991E-3,-4.633750021E-2
3.032558405E0,-1.374999993E-4,5.499999970E-4,-4.523750022E-2
3.035058713E0,-1.374999993E-4,1.649999991E-3,-4.413750023E-2
3.037559249E0,-2.199999988E-3,-1.649999991E-3,-4.207500070E-2
3.040059636E0,-3.299999982E-3,-5.499999970E-4,-3.987500072E-2
3.042560172E0,-3.299999982E-3,-5.499999970E-4,-3.781250119E-2
3.045060559E0,-1.099999994E-3,-1.649999991E-3,-3.355000168E-2
3.047561095E0,-1.374999993E-4,5.499999970E-4,-3.135000169E-2
3.050061482E0,-2.199999988E-3,-5.499999970E-4,-2.928750031E-2
3.052562014E0,9.624999948E-4,-1.649999991E-3,-2.708750032E-2
3.055062401E0,-1.099999994E-3,-5.499999970E-4,-2.502499893E-2
3.057562937E0,-1.099999994E-3,5.499999970E-4,-2.186249942E-2
3.060063324E0,-1.374999993E-4,-5.499999970E-4,-1.856249943E-2
3.062563859E0,-1.099999994E-3,-5.499999970E-4,-1.649999991E-2
3.065064246E0,-1.374999993E-4,-5.499999970E-4,-1.333750039E-2
3.067564783E0,2.062499989E-3,5.499999970E-4,-1.003750041E-2
3.070065169E0,-1.374999993E-4,-1.649999991E-3,-9.074999951E-3
3.072565706E0,-1.374999993E-4,-5.499999970E-4,-5.774999969E-3
3.075066092E0,9.624999948E-4,-5.499999970E-4,-4.812499974E-3
3.077566629E0,-1.374999993E-4,-5.499999970E-4,-5.499999970E-4
3.080066938E0,-1.099999994E-3,1.649999991E-3,-2.612499986E-3
3.082567321E0,-1.374999993E-4,-5.499999970E-4,2.612499986E-3
3.085067845E0,-1.374999993E-4,5.499999970E-4,2.612499986E-3
3.087568232E0,-1.374999993E-4,-5.499999970E-4,5.912499968E-3
3.090068769E0,-1.374999993E-4,5.499999970E-4,6.874999963E-3
3.092569155E0,9.624999948E-4,5.499999970E-4,9.074999951E-3
3.095069692E0,-1.374999993E-4,1.649999991E-3,6.874999963E-3
3.097570083E0,9.624999948E-4,5.499999970E-4,1.017499994E-2
3.100070620E0,9.624999948E-4,5.499999970E-4,9.074999951E-3
3.102570929E0,9.624999948E-4,-5.499999970E-4,9.074999951E-3
3.105071312E0,9.624999948E-4,-5.499999970E-4,1.017499994E-2
3.107571841E0,9.624999948E-4,1.649999991E-3,1.223750040E-2
3.110072227E0,-1.374999993E-4,-1.649999991E-3,1.017499994E-2
3.112572764E0,9.624999948E-4,2.612499986E-3,1.333750039E-2
3.115073150E0,-1.374999993E-4,-1.649999991E-3,1.223750040E-2
3.117573663E0,9.624999948E-4,-1.649999991E-3,1.443750039E-2
3.120074049E0,2.062499989E-3,-5.499999970E-4,1.539999992E-2
3.122574586E0,2.062499989E-3,-5.499999970E-4,1.443750039E-2
3.125074972E0,2.062499989E-3,5.499999970E-4,1.539999992E-2
3.127575509E0,3.162499983E-3,-5.499999970E-4,1.759999990E-2
3.130075896E0,2.062499989E-3,5.499999970E-4,1.869999990E-2
3.132576432E0,9.624999948E-4,-5.499999970E-4,1.869999990E-2
3.135076819E0,2.062499989E-3,2.612499986E-3,1.966249943E-2
3.137577341E0,9.624999948E-4,5.499999970E-4,2.076249942E-2
3.140077728E0,9.624999948E-4,1.649999991E-3,2.282499894E-2
3.142578264E0,2.062499989E-3,-5.499999970E-4,2.076249942E-2
3.145078574E0,9.624999948E-4,-5.499999970E-4,2.392499894E-2
3.147578956E0,9.624999948E-4,5.499999970E-4,2.392499894E-2
3.150079499E0,2.062499989E-3,5.499999970E-4,2.502499893E-2
3.152579886E0,2.062499989E-3,5.499999970E-4,2.392499894E-2
3.155080422E0,2.062499989E-3,-1.649999991E-3,2.612499893E-2
3.157580809E0,2.062499989E-3,1.649999991E-3,2.612499893E-2
3.160081374E0,3.162499983E-3,5.499999970E-4,2.928750031E-2
3.162581761E0,2.062499989E-3,-5.499999970E-4,2.818750031E-2
3.165082297E0,3.162499983E-3,5.499999970E-4,2.928750031E-2
3.167582684E0,9.624999948E-4,5.499999970E-4,2.928750031E-2
3.170083002E0,2.062499989E-3,1.649999991E-3,3.038750030E-2
3.172583538E0,2.062499989E-3,-5.499999970E-4,3.135000169E-2
3.175083925E0,2.062499989E-3,-1.649999991E-3,3.135000169E-2
3.177584461E0,3.162499983E-3,-5.499999970E-4,3.135000169E-2
3.180084843E0,3.162499983E-3,5.499999970E-4,3.135000169E-2
3.182585379E0,2.062499989E-3,5.499999970E-4,3.135000169E-2
3.185085766E0,9.624999948E-4,1.649999991E-3,2.928750031E-2
3.187586302E0,2.062499989E-3,1.649999991E-3,2.928750031E-2
3.190086689E0,2.062499989E-3,-5.499999970E-4,2.928750031E-2
3.192587215E0,2.062499989E-3,5.499999970E-4,2.502499893E-2
3.195087602E0,9.624999948E-4,-5.499999970E-4,2.392499894E-2
3.197588138E0,2.062499989E-3,-5.499999970E-4,2.282499894E-2
3.200088525E0,2.062499989E-3,-5.499999970E-4,2.186249942E-2
3.202589077E0,-1.374999993E-4,1.649999991E-3,2.076249942E-2
3.205089386E0,9.624999948E-4,5.499999970E-4,1.966249943E-2
3.207590000E0,9.624999948E-4,-5.499999970E-4,1.649999991E-2
3.210090386E0,2.062499989E-3,5.499999970E-4,1.539999992E-2
3.212590923E0,-1.374999993E-4,-1.649999991E-3,1.443750039E-2
3.215091232E0,-1.374999993E-4,-5.499999970E-4,1.223750040E-2
3.217591615E0,9.624999948E-4,-1.649999991E-3,1.017499994E-2
3.220092153E0,-1.099999994E-3,1.649999991E-3,9.074999951E-3
3.222592540E0,-1.374999993E-4,-5.499999970E-4,1.017499994E-2
3.225093072E0,9.624999948E-4,-5.499999970E-4,6.874999963E-3
3.227593458E0,2.062499989E-3,5.499999970E-4,4.812499974E-3
3.230093995E0,2.062499989E-3,-1.649999991E-3,1.649999991E-3
3.232594381E0,9.624999948E-4,5.499999970E-4,5.499999970E-4
3.235094699E0,-1.374999993E-4,1.649999991E-3,-1.649999991E-3
3.237595235E0,-1.374999993E-4,5.499999970E-4,-3.712499980E-3
3.240095622E0,-1.099999994E-3,-5.499999970E-4,-5.774999969E-3
3.242596159E0,-1.374999993E-4,5.499999970E-4,-7.974999957E-3
3.245096540E0,9.624999948E-4,-5.499999970E-4,-1.113750041E-2
3.247597077E0,-1.374999993E-4,-5.499999970E-4,-1.539999992E-2
3.250097463E0,-1.099999994E-3,-1.649999991E-3,-1.539999992E-2
3.252598000E0,-1.099999994E-3,-5.499999970E-4,-1.649999991E-2
3.255098386E0,-1.099999994E-3,-5.499999970E-4,-1.856249943E-2
3.257598937E0,-2.199999988E-3,5.499999970E-4,-1.856249943E-2
3.260099323E0,-2.199999988E-3,-5.499999970E-4,-2.076249942E-2
3.262599860E0,-2.199999988E-3,-5.499999970E-4,-2.392499894E-2
3.265100247E0,-1.374999993E-4,-5.499999970E-4,-2.186249942E-2
3.267600788E0,-1.099999994E-3,5.499999970E-4,-2.392499894E-2
3.270101175E0,-2.199999988E-3,5.499999970E-4,-2.392499894E-2
3.272601482E0,-1.374999993E-4,-1.649999991E-3,-2.502499893E-2
3.275102096E0,-1.099999994E-3,5.499999970E-4,-2.612499893E-2
3.277602405E0,-1.099999994E-3,1.649999991E-3,-2.708750032E-2
3.280102951E0,-1.099999994E-3,5.499999970E-4,-2.708750032E-2
3.282603337E0,-1.374999993E-4,-5.499999970E-4,-2.818750031E-2
3.285103874E0,-1.099999994E-3,-5.499999970E-4,-2.928750031E-2
3.287604261E0,-1.099999994E-3,1.649999991E-3,-3.038750030E-2
3.290104817E0,-1.374999993E-4,-5.499999970E-4,-3.135000169E-2
3.292605204E0,-1.099999994E-3,5.499999970E-4,-2.928750031E-2
3.295105740E0,-1.099999994E-3,5.499999970E-4,-3.244999796E-2
3.297606127E0,-2.199999988E-3,5.499999970E-4,-3.038750030E-2
3.300106438E0,-1.099999994E-3,5.499999970E-4,-3.135000169E-2
3.302606975E0,-1.374999993E-4,-1.649999991E-3,-3.451250121E-2
3.305107362E0,-1.099999994E-3,-5.499999970E-4,-3.038750030E-2
3.307607898E0,9.624999948E-4,-5.499999970E-4,-3.038750030E-2
3.310108300E0,-1.374999993E-4,-5.499999970E-4,-2.928750031E-2
3.312608836E0,-1.099999994E-3,5.499999970E-4,-3.038750030E-2
3.315109223E0,-1.099999994E-3,5.499999970E-4,-2.928750031E-2
3.317609759E0,-1.374999993E-4,5.499999970E-4,-2.502499893E-2
3.320110146E0,-1.099999994E-3,-5.499999970E-4,-2.612499893E-2
3.322610687E0,-1.099999994E-3,5.499999970E-4,-2.392499894E-2
3.325111074E0,-2.199999988E-3,5.499999970E-4,-2.502499893E-2
3.327611610E0,9.624999948E-4,-5.499999970E-4,-2.392499894E-2
3.330111997E0,-1.099999994E-3,-5.499999970E-4,-2.282499894E-2
3.332612528E0,-1.374999993E-4,-5.499999970E-4,-2.186249942E-2
3.335112838E0,-1.374999993E-4,5.499999970E-4,-2.186249942E-2
3.337613452E0,-1.099999994E-3,-5.499999970E-4,-1.966249943E-2
3.340113761E0,-1.099999994E-3,-5.499999970E-4,-1.856249943E-2
3.342614370E0,-1.099999994E-3,5.499999970E-4,-1.856249943E-2
3.345114679E0,-2.199999988E-3,-1.649999991E-3,-1.759999990E-2
3.347615064E0,-2.199999988E-3,5.499999970E-4,-1.649999991E-2
3.350115600E0,-1.099999994E-3,5.499999970E-4,-1.539999992E-2
3.352615963E0,-1.374999993E-4,5.499999970E-4,-1.429999992E-2
3.355116500E0,-1.099999994E-3,-1.649999991E-3,-1.429999992E-2
3.357616886E0,-1.374999993E-4,5.499999970E-4,-1.113750041E-2
3.360117423E0,-1.099999994E-3,5.499999970E-4,-1.223750040E-2
3.362617809E0,-2.199999988E-3,-1.649999991E-3,-1.003750041E-2
3.365118346E0,-1.099999994E-3,5.499999970E-4,-9.074999951E-3
3.367618732E0,9.624999948E-4,1.649999991E-3,-6.874999963E-3
3.370119040E0,-1.374999993E-4,5.499999970E-4,-4.812499974E-3
3.372619576E0,9.624999948E-4,-5.499999970E-4,-5.774999969E-3
3.375119958E0,9.624999948E-4,-5.499999970E-4,-3.712499980E-3
3.377620495E0,9.624999948E-4,5.499999970E-4,-1.649999991E-3
3.380120881E0,-1.374999993E-4,-5.499999970E-4,-5.774999969E-3
3.382621418E0,9.624999948E-4,5.499999970E-4,-2.612499986E-3
3.385121799E0,9.624999948E-4,-5.499999970E-4,-2.612499986E-3
3.387622336E0,-1.099999994E-3,5.499999970E-4,-5.499999970E-4
3.390122722E0,9.624999948E-4,-1.649999991E-3,-5.499999970E-4
3.392623259E0,9.624999948E-4,-5.499999970E-4,-4.812499974E-3
3.395123640E0,-1.374999993E-4,-1.649999991E-3,-5.499999970E-4
3.397624177E0,2.062499989E-3,5.499999970E-4,-1.649999991E-3
3.400124564E0,-1.374999993E-4,-5.499999970E-4,-2.612499986E-3
3.402624871E0,9.624999948E-4,1.649999991E-3,-1.649999991E-3
3.405125481E0,-1.099999994E-3,-5.499999970E-4,-5.499999970E-4
3.407625790E0,-1.374999993E-4,5.499999970E-4,-5.499999970E-4
3.410126404E0,-1.374999993E-4,-5.499999970E-4,5.499999970E-4
3.412626713E0,-1.374999993E-4,5.499999970E-4,1.649999991E-3
3.415127245E0,9.624999948E-4,-5.499999970E-4,1.649999991E-3
3.417627631E0,2.062499989E-3,-5.499999970E-4,2.612499986E-3
3.420128168E0,9.624999948E-4,5.499999970E-4,2.612499986E-3
3.422628555E0,2.062499989E-3,-5.499999970E-4,3.712499980E-3
3.425129091E0,9.624999948E-4,5.499999970E-4,3.712499980E-3
3.427629473E0,-1.374999993E-4,-5.499999970E-4,5.912499968E-3
3.430130009E0,-1.374999993E-4,5.499999970E-4,5.912499968E-3
3.432630396E0,9.624999948E-4,-5.499999970E-4,7.974999957E-3
3.435130703E0,9.624999948E-4,5.499999970E-4,5.912499968E-3
3.437631240E0,2.062499989E-3,5.499999970E-4,7.974999957E-3
3.440131627E0,9.624999948E-4,-5.499999970E-4,6.874999963E-3
3.442632163E0,-1.374999993E-4,1.649999991E-3,9.074999951E-3
3.445132550E0,9.624999948E-4,-5.499999970E-4,1.017499994E-2
3.447633086E0,-1.099999994E-3,-5.499999970E-4,1.017499994E-2
3.450133473E0,-1.374999993E-4,-5.499999970E-4,1.223750040E-2
3.452634009E0,9.624999948E-4,5.499999970E-4,1.539999992E-2
3.455134396E0,9.624999948E-4,-5.499999970E-4,1.539999992E-2
3.457634932E0,9.624999948E-4,1.649999991E-3,1.966249943E-2
3.460135329E0,2.062499989E-3,5.499999970E-4,2.282499894E-2
3.462635865E0,-1.374999993E-4,-5.499999970E-4,2.392499894E-2
3.465136252E0,2.062499989E-3,1.649999991E-3,2.502499893E-2
3.467636788E0,3.162499983E-3,-1.649999991E-3,2.708750032E-2
3.470137175E0,2.062499989E-3,5.499999970E-4,2.928750031E-2
3.472637712E0,2.062499989E-3,-5.499999970E-4,3.135000169E-2
3.475138098E0,3.162499983E-3,5.499999970E-4,3.355000168E-2
3.477638406E0,2.062499989E-3,-5.499999970E-4,3.561250120E-2
3.480138961E0,2.062499989E-3,-5.499999970E-4,3.671250120E-2
3.482639348E0,3.162499983E-3,-1.649999991E-3,3.781250119E-2
3.485139884E0,2.062499989E-3,5.499999970E-4,3.891250119E-2
3.487640271E0,3.162499983E-3,-5.499999970E-4,4.207500070E-2
3.490140788E0,2.062499989E-3,-5.499999970E-4,4.207500070E-2
3.492641174E0,3.162499983E-3,5.499999970E-4,4.207500070E-2
3.495141711E0,3.162499983E-3,-5.499999970E-4,4.413750023E-2
3.497642097E0,3.162499983E-3,5.499999970E-4,4.523750022E-2
3.500142634E0,4.124999978E-3,-5.499999970E-4,4.743750021E-2
3.502642915E0,3.162499983E-3,-5.499999970E-4,4.413750023E-2
3.505143298E0,3.162499983E-3,1.649999991E-3,4.633750021E-2
3.507643836E0,2.062499989E-3,5.499999970E-4,4.633750021E-2
3.510144223E0,2.062499989E-3,1.649999991E-3,4.523750022E-2
3.512644769E0,3.162499983E-3,5.499999970E-4,4.413750023E-2
3.515145155E0,2.062499989E-3,5.499999970E-4,4.523750022E-2
3.517645692E0,3.162499983E-3,-5.499999970E-4,4.317500070E-2
3.520146078E0,2.062499989E-3,-5.499999970E-4,4.207500070E-2
3.522646634E0,3.162499983E-3,5.499999970E-4,3.987500072E-2
3.525147020E0,3.162499983E-3,2.612499986E-3,3.781250119E-2
3.527647557E0,2.062499989E-3,-5.499999970E-4,3.561250120E-2
3.530147943E0,9.624999948E-4,-5.499999970E-4,3.561250120E-2
3.532648480E0,2.062499989E-3,-5.499999970E-4,3.135000169E-2
3.535148872E0,4.124999978E-3,5.499999970E-4,3.135000169E-2
3.537649408E0,2.062499989E-3,-5.499999970E-4,2.708750032E-2
3.540149718E0,2.062499989E-3,5.499999970E-4,2.392499894E-2
3.542650331E0,2.062499989E-3,5.499999970E-4,2.076249942E-2
3.545150632E0,2.062499989E-3,-5.499999970E-4,1.869999990E-2
3.547651016E0,-1.374999993E-4,-5.499999970E-4,1.539999992E-2
3.550151553E0,-1.374999993E-4,-5.499999970E-4,1.223750040E-2
3.552651940E0,9.624999948E-4,1.649999991E-3,9.074999951E-3
3.555152485E0,-1.374999993E-4,5.499999970E-4,6.874999963E-3
3.557652872E0,-1.374999993E-4,-1.649999991E-3,3.712499980E-3
3.560153408E0,9.624999948E-4,5.499999970E-4,2.612499986E-3
3.562653795E0,-1.099999994E-3,-5.499999970E-4,5.499999970E-4
3.565154331E0,9.624999948E-4,1.649999991E-3,-3.712499980E-3
3.567654728E0,-1.099999994E-3,5.499999970E-4,-5.774999969E-3
3.570155035E0,-1.374999993E-4,5.499999970E-4,-9.074999951E-3
3.572655572E0,-1.099999994E-3,-5.499999970E-4,-1.223750040E-2
3.575155959E0,-1.374999993E-4,-5.499999970E-4,-1.429999992E-2
3.577656504E0,-1.099999994E-3,1.649999991E-3,-1.539999992E-2
3.580156891E0,-1.374999993E-4,1.649999991E-3,-1.856249943E-2
3.582657427E0,-1.099999994E-3,1.649999991E-3,-1.966249943E-2
3.585157814E0,-1.099999994E-3,-5.499999970E-4,-2.282499894E-2
3.587658345E0,-1.099999994E-3,1.649999991E-3,-2.282499894E-2
3.590158732E0,-1.374999993E-4,5.499999970E-4,-2.708750032E-2
3.592659268E0,-1.099999994E-3,-1.649999991E-3,-2.708750032E-2
3.595159655E0,-2.199999988E-3,-1.649999991E-3,-2.928750031E-2
3.597660177E0,-2.199999988E-3,1.649999991E-3,-3.038750030E-2
3.600160564E0,-1.099999994E-3,1.649999991E-3,-3.038750030E-2
3.602660872E0,-1.099999994E-3,-5.499999970E-4,-3.244999796E-2
3.605161485E0,-2.199999988E-3,-5.499999970E-4,-3.451250121E-2
3.607661780E0,-2.199999988E-3,-5.499999970E-4,-3.877500072E-2
3.610162393E0,-3.299999982E-3,5.499999970E-4,-3.877500072E-2
3.612662703E0,-3.299999982E-3,-5.499999970E-4,-3.987500072E-2
3.615163239E0,-3.299999982E-3,5.499999970E-4,-4.097500071E-2
3.617663626E0,-1.099999994E-3,5.499999970E-4,-4.303750023E-2
3.620164162E0,-2.199999988E-3,-1.649999991E-3,-4.413750023E-2
3.622664549E0,-2.199999988E-3,-5.499999970E-4,-4.523750022E-2
3.625165086E0,-2.199999988E-3,-5.499999970E-4,-4.729999974E-2
3.627665472E0,-3.299999982E-3,5.499999970E-4,-5.059999973E-2
3.630165986E0,-1.099999994E-3,-1.649999991E-3,-5.266249925E-2
3.632666372E0,-2.199999988E-3,-5.499999970E-4,-5.059999973E-2
3.635166909E0,-4.399999976E-3,-5.499999970E-4,-5.266249925E-2
3.637667295E0,-3.299999982E-3,-5.499999970E-4,-5.376249924E-2
3.640167603E0,-4.399999976E-3,-5.499999970E-4,-5.156249925E-2
3.642668125E0,-3.299999982E-3,5.499999970E-4,-5.376249924E-2
3.645168512E0,-3.299999982E-3,-5.499999970E-4,-5.486249924E-2
3.647669049E0,-3.299999982E-3,-5.499999970E-4,-5.376249924E-2
3.650169435E0,-3.299999982E-3,-5.499999970E-4,-5.266249925E-2
3.652669938E0,-2.199999988E-3,5.499999970E-4,-5.156249925E-2
3.655170324E0,-3.299999982E-3,5.499999970E-4,-5.266249925E-2
3.657670861E0,-2.199999988E-3,-2.612499986E-3,-5.266249925E-2
3.660171247E0,-3.299999982E-3,-1.649999991E-3,-5.059999973E-2
3.662671784E0,-4.399999976E-3,-5.499999970E-4,-4.839999974E-2
3.665172104E0,-3.299999982E-3,-5.499999970E-4,-4.839999974E-2
3.667672717E0,-4.399999976E-3,-1.649999991E-3,-4.729999974E-2
3.670173027E0,-1.099999994E-3,-5.499999970E-4,-4.523750022E-2
3.672673640E0,-2.199999988E-3,5.499999970E-4,-4.413750023E-2
3.675173964E0,-1.099999994E-3,5.499999970E-4,-4.207500070E-2
3.677674577E0,-2.199999988E-3,5.499999970E-4,-3.987500072E-2
3.680174887E0,-2.199999988E-3,5.499999970E-4,-3.987500072E-2
3.682675500E0,-1.099999994E-3,-1.649999991E-3,-3.451250121E-2
3.685175800E0,-1.099999994E-3,-5.499999970E-4,-3.355000168E-2
3.687676185E0,-2.199999988E-3,-5.499999970E-4,-2.928750031E-2
3.690176721E0,-1.374999993E-4,5.499999970E-4,-2.818750031E-2
3.692677108E0,-1.099999994E-3,-5.499999970E-4,-2.392499894E-2
3.695177649E0,-2.199999988E-3,-5.499999970E-4,-2.076249942E-2
3.697678036E0,-2.199999988E-3,5.499999970E-4,-1.856249943E-2
3.700178572E0,-1.374999993E-4,-5.499999970E-4,-1.429999992E-2
3.702678959E0,-1.374999993E-4,5.499999970E-4,-1.223750040E-2
3.705179495E0,-1.099999994E-3,1.649999991E-3,-7.974999957E-3
3.707679815E0,9.624999948E-4,5.499999970E-4,-5.774999969E-3
3.710180198E0,-1.374999993E-4,5.499999970E-4,-1.649999991E-3
3.712680721E0,-1.099999994E-3,-5.499999970E-4,2.612499986E-3
3.715181108E0,-1.374999993E-4,5.499999970E-4,4.812499974E-3
3.717681644E0,-1.374999993E-4,5.499999970E-4,7.974999957E-3
3.720182031E0,9.624999948E-4,-5.499999970E-4,1.017499994E-2
3.722682567E0,-1.374999993E-4,5.499999970E-4,1.539999992E-2
3.725182954E0,3.162499983E-3,5.499999970E-4,1.759999990E-2
3.727683495E0,9.624999948E-4,5.499999970E-4,2.186249942E-2
3.730183805E0,2.062499989E-3,-5.499999970E-4,2.708750032E-2
3.732684188E0,3.162499983E-3,5.499999970E-4,3.038750030E-2
3.735184726E0,3.162499983E-3,-5.499999970E-4,3.038750030E-2
3.737685132E0,2.062499989E-3,-5.499999970E-4,3.561250120E-2
3.740185668E0,2.062499989E-3,-5.499999970E-4,3.671250120E-2
3.742686055E0,2.062499989E-3,-5.499999970E-4,3.987500072E-2
3.745186668E0,2.062499989E-3,-5.499999970E-4,4.317500070E-2
3.747686978E0,3.162499983E-3,-5.499999970E-4,4.413750023E-2
3.750187591E0,3.162499983E-3,5.499999970E-4,4.839999974E-2
3.752687901E0,3.162499983E-3,5.499999970E-4,4.839999974E-2
3.755188437E0,5.224999972E-3,-5.499999970E-4,4.949999973E-2
3.757688820E0,3.162499983E-3,-5.499999970E-4,5.059999973E-2
3.760189357E0,3.162499983E-3,5.499999970E-4,5.156249925E-2
3.762689743E0,5.224999972E-3,5.499999970E-4,5.156249925E-2
3.765190280E0,3.162499983E-3,1.649999991E-3,5.376249924E-2
3.767690666E0,3.162499983E-3,-5.499999970E-4,5.376249924E-2
3.770191222E0,3.162499983E-3,5.499999970E-4,5.582499877E-2
3.772691608E0,2.062499989E-3,5.499999970E-4,5.802499875E-2
3.775191916E0,3.162499983E-3,-5.499999970E-4,5.802499875E-2
3.777692453E0,4.124999978E-3,5.499999970E-4,6.008749828E-2
3.780192844E0,4.124999978E-3,5.499999970E-4,6.008749828E-2
3.782693381E0,5.224999972E-3,5.499999970E-4,6.228749827E-2
3.785193767E0,5.224999972E-3,5.499999970E-4,6.118749827E-2
3.787694304E0,4.124999978E-3,-5.499999970E-4,6.228749827E-2
3.790194690E0,4.124999978E-3,-1.649999991E-3,6.008749828E-2
3.792695227E0,5.224999972E-3,5.499999970E-4,6.118749827E-2
3.795195613E0,4.124999978E-3,5.499999970E-4,6.118749827E-2
3.797695921E0,4.124999978E-3,5.499999970E-4,6.008749828E-2
3.800196458E0,4.124999978E-3,1.649999991E-3,6.008749828E-2
3.802696848E0,3.162499983E-3,-5.499999970E-4,5.802499875E-2
3.805197385E0,3.162499983E-3,-5.499999970E-4,5.802499875E-2
3.807697771E0,4.124999978E-3,-1.649999991E-3,5.582499877E-2
3.810198308E0,4.124999978E-3,5.499999970E-4,5.582499877E-2
3.812698694E0,3.162499983E-3,-5.499999970E-4,5.376249924E-2
3.815199231E0,4.124999978E-3,5.499999970E-4,5.156249925E-2
3.817699617E0,3.162499983E-3,-5.499999970E-4,4.949999973E-2
3.820200154E0,4.124999978E-3,5.499999970E-4,4.743750021E-2
3.822700541E0,3.162499983E-3,-5.499999970E-4,4.523750022E-2
3.825201082E0,3.162499983E-3,5.499999970E-4,4.207500070E-2
3.827701469E0,4.124999978E-3,5.499999970E-4,3.987500072E-2
3.830202005E0,2.062499989E-3,1.649999991E-3,3.891250119E-2
3.832702392E0,2.062499989E-3,1.649999991E-3,3.464999795E-2
3.835202943E0,2.062499989E-3,5.499999970E-4,3.244999796E-2
3.837703330E0,9.624999948E-4,5.499999970E-4,2.818750031E-2
3.840203866E0,3.162499983E-3,5.499999970E-4,2.708750032E-2
3.842704176E0,9.624999948E-4,1.649999991E-3,2.186249942E-2
3.845204530E0,9.624999948E-4,5.499999970E-4,1.759999990E-2
3.847705068E0,9.624999948E-4,-5.499999970E-4,1.539999992E-2
3.850205455E0,9.624999948E-4,5.499999970E-4,1.113750041E-2
3.852705991E0,-1.374999993E-4,1.649999991E-3,6.874999963E-3
3.855206378E0,-1.099999994E-3,-5.499999970E-4,2.612499986E-3
3.857706918E0,-1.374999993E-4,5.499999970E-4,-5.499999970E-4
3.860207305E0,-1.374999993E-4,-5.499999970E-4,-6.874999963E-3
3.862707841E0,-1.374999993E-4,5.499999970E-4,-7.974999957E-3
3.865208228E0,-2.199999988E-3,-5.499999970E-4,-1.113750041E-2
3.867708527E0,-1.374999993E-4,5.499999970E-4,-1.759999990E-2
3.870209063E0,-1.099999994E-3,5.499999970E-4,-2.076249942E-2
3.872709450E0,-1.099999994E-3,5.499999970E-4,-2.076249942E-2
3.875209986E0,-2.199999988E-3,5.499999970E-4,-2.392499894E-2
3.877710363E0,-2.199999988E-3,5.499999970E-4,-2.708750032E-2
3.880210899E0,-2.199999988E-3,-5.499999970E-4,-2.818750031E-2
3.882711286E0,-1.099999994E-3,-5.499999970E-4,-3.038750030E-2
3.885211822E0,-3.299999982E-3,-5.499999970E-4,-3.355000168E-2
3.887712219E0,-1.099999994E-3,5.499999970E-4,-3.561250120E-2
3.890212755E0,-2.199999988E-3,1.649999991E-3,-3.671250120E-2
3.892713142E0,-2.199999988E-3,-1.649999991E-3,-3.877500072E-2
3.895213679E0,-2.199999988E-3,5.499999970E-4,-4.097500071E-2
3.897714065E0,-2.199999988E-3,1.649999991E-3,-4.413750023E-2
3.900214602E0,-2.199999988E-3,-5.499999970E-4,-4.523750022E-2
3.902714988E0,-3.299999982E-3,5.499999970E-4,-4.839999974E-2
3.905215525E0,-1.099999994E-3,-5.499999970E-4,-5.059999973E-2
3.907715887E0,-2.199999988E-3,-5.499999970E-4,-5.156249925E-2
3.910216424E0,-4.399999976E-3,-5.499999970E-4,-5.156249925E-2
3.912716734E0,-3.299999982E-3,-5.499999970E-4,-5.582499877E-2
3.915217116E0,-3.299999982E-3,-5.499999970E-4,-5.582499877E-2
3.917717655E0,-2.199999988E-3,1.649999991E-3,-6.008749828E-2
3.920218041E0,-4.399999976E-3,5.499999970E-4,-6.008749828E-2
3.922718578E0,-4.399999976E-3,-1.649999991E-3,-6.118749827E-2
3.925218964E0,-3.299999982E-3,5.499999970E-4,-6.324999779E-2
3.927719501E0,-3.299999982E-3,5.499999970E-4,-6.324999779E-2
3.930219901E0,-4.399999976E-3,5.499999970E-4,-6.435000151E-2
3.932720438E0,-4.399999976E-3,-5.499999970E-4,-6.544999778E-2
3.935220748E0,-4.399999976E-3,5.499999970E-4,-6.655000150E-2
3.937721130E0,-4.399999976E-3,-5.499999970E-4,-6.861250103E-2
3.940221669E0,-3.299999982E-3,5.499999970E-4,-6.861250103E-2
3.942722026E0,-4.399999976E-3,5.499999970E-4,-6.971249729E-2
3.945222563E0,-2.199999988E-3,-5.499999970E-4,-6.861250103E-2
3.947722949E0,-4.399999976E-3,5.499999970E-4,-6.971249729E-2
3.950223486E0,-4.399999976E-3,-5.499999970E-4,-7.081250101E-2
3.952723872E0,-3.299999982E-3,5.499999970E-4,-6.861250103E-2
3.955224409E0,-4.399999976E-3,-5.499999970E-4,-6.861250103E-2
3.957724796E0,-3.299999982E-3,-5.499999970E-4,-6.971249729E-2
3.960225332E0,-3.299999982E-3,-5.499999970E-4,-6.751249731E-2
3.962725714E0,-5.362499971E-3,5.499999970E-4,-6.655000150E-2
3.965226250E0,-4.399999976E-3,-1.649999991E-3,-6.544999778E-2
3.967726637E0,-4.399999976E-3,5.499999970E-4,-6.324999779E-2
3.970227173E0,-5.362499971E-3,5.499999970E-4,-6.324999779E-2
3.972727473E0,-3.299999982E-3,-5.499999970E-4,-6.008749828E-2
3.975228086E0,-3.299999982E-3,5.499999970E-4,-5.898749828E-2
3.977728473E0,-3.299999982E-3,-5.499999970E-4,-5.692499876E-2
3.980228781E0,-4.399999976E-3,5.499999970E-4,-5.486249924E-2
3.982729317E0,-2.199999988E-3,5.499999970E-4,-5.156249925E-2
3.985229700E0,-3.299999982E-3,-5.499999970E-4,-5.059999973E-2
3.987730236E0,-2.199999988E-3,1.649999991E-3,-4.729999974E-2
3.990230623E0,-1.099999994E-3,1.649999991E-3,-4.303750023E-2
3.992731159E0,-3.299999982E-3,-5.499999970E-4,-4.413750023E-2
3.995231546E0,-2.199999988E-3,5.499999970E-4,-3.987500072E-2
3.997732077E0,-1.099999994E-3,-5.499999970E-4,-3.451250121E-2
4.000232464E0,-2.199999988E-3,5.499999970E-4,-3.355000168E-2
4.002733000E0,-1.099999994E-3,-5.499999970E-4,-3.038750030E-2
4.005233387E0,-1.099999994E-3,-5.499999970E-4,-2.818750031E-2
4.007733685E0,-1.374999993E-4,1.649999991E-3,-2.612499893E-2
4.010234298E0,-1.099999994E-3,-5.499999970E-4,-2.282499894E-2
4.012734608E0,-1.374999993E-4,5.499999970E-4,-1.856249943E-2
4.015235144E0,-1.374999993E-4,5.499999970E-4,-1.539999992E-2
4.017735541E0,-1.374999993E-4,5.499999970E-4,-1.333750039E-2
4.020236077E0,-1.099999994E-3,5.499999970E-4,-9.074999951E-3
4.022736464E0,-1.099999994E-3,5.499999970E-4,-5.774999969E-3
4.025237000E0,9.624999948E-4,-5.499999970E-4,-1.649999991E-3
4.027737382E0,-1.374999993E-4,-5.499999970E-4,5.499999970E-4
4.030237919E0,-1.374999993E-4,-5.499999970E-4,3.712499980E-3
4.032738305E0,-1.374999993E-4,-5.499999970E-4,5.912499968E-3
4.035238842E0,2.062499989E-3,-5.499999970E-4,1.017499994E-2
4.037739238E0,9.624999948E-4,5.499999970E-4,1.443750039E-2
4.040239546E0,2.062499989E-3,-1.649999991E-3,1.539999992E-2
4.042740159E0,2.062499989E-3,-5.499999970E-4,1.869999990E-2
4.045240469E0,2.062499989E-3,1.649999991E-3,1.966249943E-2
4.047741082E0,2.062499989E-3,5.499999970E-4,2.186249942E-2
4.050241392E0,2.062499989E-3,-5.499999970E-4,2.612499893E-2
4.052741929E0,2.062499989E-3,5.499999970E-4,2.818750031E-2
4.055242315E0,9.624999948E-4,5.499999970E-4,2.818750031E-2
4.057742852E0,3.162499983E-3,5.499999970E-4,3.135000169E-2
4.060243242E0,3.162499983E-3,-1.649999991E-3,3.244999796E-2
4.062743779E0,3.162499983E-3,5.499999970E-4,3.244999796E-2
4.065244165E0,2.062499989E-3,5.499999970E-4,3.244999796E-2
4.067744702E0,4.124999978E-3,-5.499999970E-4,3.355000168E-2
4.070245089E0,2.062499989E-3,1.649999991E-3,3.244999796E-2
4.072745625E0,3.162499983E-3,-5.499999970E-4,3.355000168E-2
4.075245935E0,3.162499983E-3,-5.499999970E-4,3.561250120E-2
4.077746317E0,2.062499989E-3,5.499999970E-4,3.464999795E-2
4.080246871E0,3.162499983E-3,1.649999991E-3,3.561250120E-2
4.082747257E0,3.162499983E-3,1.649999991E-3,3.561250120E-2
4.085247794E0,3.162499983E-3,-5.499999970E-4,3.561250120E-2
4.087748180E0,2.062499989E-3,5.499999970E-4,3.464999795E-2
4.090248712E0,3.162499983E-3,-5.499999970E-4,3.561250120E-2
4.092749099E0,4.124999978E-3,-5.499999970E-4,3.671250120E-2
4.095249635E0,2.062499989E-3,-5.499999970E-4,3.781250119E-2
4.097750022E0,4.124999978E-3,1.649999991E-3,3.464999795E-2
4.100250544E0,4.124999978E-3,5.499999970E-4,3.464999795E-2
4.102750854E0,2.062499989E-3,5.499999970E-4,3.464999795E-2
4.105251467E0,3.162499983E-3,-5.499999970E-4,3.464999795E-2
4.107751777E0,2.062499989E-3,5.499999970E-4,3.561250120E-2
4.110252399E0,9.624999948E-4,-5.499999970E-4,3.464999795E-2
4.112752709E0,2.062499989E-3,-5.499999970E-4,3.671250120E-2
4.115253322E0,2.062499989E-3,5.499999970E-4,3.561250120E-2
4.117753632E0,4.124999978E-3,5.499999970E-4,3.561250120E-2
4.120254245E0,3.162499983E-3,-5.499999970E-4,3.355000168E-2
4.122754575E0,4.124999978E-3,5.499999970E-4,3.671250120E-2
4.125254960E0,4.124999978E-3,5.499999970E-4,3.561250120E-2
4.127755496E0,2.062499989E-3,-5.499999970E-4,3.561250120E-2
4.130255883E0,4.124999978E-3,5.499999970E-4,3.464999795E-2
4.132756433E0,2.062499989E-3,-5.499999970E-4,3.464999795E-2
4.135256820E0,2.062499989E-3,-5.499999970E-4,3.561250120E-2
4.137757356E0,3.162499983E-3,1.649999991E-3,3.355000168E-2
4.140257743E0,2.062499989E-3,5.499999970E-4,3.135000169E-2
4.142758294E0,3.162499983E-3,5.499999970E-4,3.355000168E-2
4.145258603E0,2.062499989E-3,-1.649999991E-3,3.244999796E-2
4.147758986E0,3.162499983E-3,-5.499999970E-4,3.038750030E-2
4.150259524E0,3.162499983E-3,5.499999970E-4,3.135000169E-2
4.152759911E0,2.062499989E-3,-1.649999991E-3,3.038750030E-2
4.155260467E0,9.624999948E-4,5.499999970E-4,2.708750032E-2
4.157760854E0,2.062499989E-3,-5.499999970E-4,2.928750031E-2
4.160261390E0,2.062499989E-3,5.499999970E-4,2.818750031E-2
4.162761777E0,3.162499983E-3,-5.499999970E-4,2.612499893E-2
4.165262328E0,2.062499989E-3,-5.499999970E-4,2.502499893E-2
4.167762714E0,2.062499989E-3,-5.499999970E-4,2.502499893E-2
4.170263022E0,2.062499989E-3,5.499999970E-4,2.186249942E-2
4.172763635E0,2.062499989E-3,-5.499999970E-4,2.076249942E-2
4.175263935E0,2.062499989E-3,-5.499999970E-4,1.759999990E-2
4.177764548E0,9.624999948E-4,1.649999991E-3,1.869999990E-2
4.180264858E0,-1.374999993E-4,5.499999970E-4,1.649999991E-2
4.182765471E0,9.624999948E-4,5.499999970E-4,1.333750039E-2
4.185265781E0,-1.374999993E-4,-5.499999970E-4,1.223750040E-2
4.187766410E0,2.062499989E-3,-1.649999991E-3,1.017499994E-2
4.190266719E0,-1.374999993E-4,5.499999970E-4,9.074999951E-3
4.192767256E0,-1.374999993E-4,5.499999970E-4,7.974999957E-3
4.195267642E0,2.062499989E-3,-5.499999970E-4,4.812499974E-3
4.197768179E0,-1.374999993E-4,5.499999970E-4,4.812499974E-3
4.200268565E0,-1.374999993E-4,5.499999970E-4,2.612499986E-3
4.202769102E0,-1.374999993E-4,-5.499999970E-4,5.499999970E-4
4.205269489E0,9.624999948E-4,5.499999970E-4,-1.649999991E-3
4.207770025E0,-1.374999993E-4,-5.499999970E-4,-3.712499980E-3
4.210270412E0,-1.099999994E-3,-5.499999970E-4,-1.649999991E-3
4.212770943E0,-1.374999993E-4,1.649999991E-3,-4.812499974E-3
4.215271253E0,-1.374999993E-4,1.649999991E-3,-6.874999963E-3
4.217771635E0,-1.099999994E-3,-1.649999991E-3,-6.874999963E-3
4.220272174E0,-1.099999994E-3,5.499999970E-4,-1.003750041E-2
4.222772555E0,-1.374999993E-4,5.499999970E-4,-1.223750040E-2
4.225273092E0,-1.099999994E-3,5.499999970E-4,-1.429999992E-2
4.227773479E0,-1.099999994E-3,5.499999970E-4,-1.333750039E-2
4.230274015E0,-1.374999993E-4,-1.649999991E-3,-1.429999992E-2
4.232774402E0,-1.374999993E-4,5.499999970E-4,-1.539999992E-2
4.235274938E0,-1.099999994E-3,5.499999970E-4,-1.759999990E-2
4.237775325E0,-1.374999993E-4,5.499999970E-4,-1.649999991E-2
4.240275861E0,-1.099999994E-3,-5.499999970E-4,-1.856249943E-2
4.242776160E0,-1.099999994E-3,5.499999970E-4,-1.966249943E-2
4.245276773E0,-1.099999994E-3,5.499999970E-4,-1.759999990E-2
4.247777083E0,-1.099999994E-3,5.499999970E-4,-1.856249943E-2
4.250277696E0,-1.099999994E-3,5.499999970E-4,-1.856249943E-2
4.252778006E0,9.624999948E-4,5.499999970E-4,-1.966249943E-2
4.255278638E0,-1.099999994E-3,1.649999991E-3,-1.856249943E-2
4.257778948E0,-1.374999993E-4,-2.612499986E-3,-2.076249942E-2
4.260279333E0,-1.374999993E-4,-5.499999970E-4,-2.392499894E-2
4.262779869E0,-1.099999994E-3,-5.499999970E-4,-2.282499894E-2
4.265280247E0,-1.099999994E-3,1.649999991E-3,-2.392499894E-2
4.267780783E0,-1.374999993E-4,5.499999970E-4,-2.392499894E-2
4.270281170E0,-1.374999993E-4,-5.499999970E-4,-2.502499893E-2
4.272781706E0,-1.099999994E-3,2.612499986E-3,-2.502499893E-2
4.275282083E0,-2.199999988E-3,-1.649999991E-3,-2.818750031E-2
4.277782620E0,-1.099999994E-3,-5.499999970E-4,-2.818750031E-2
4.280283006E0,-2.199999988E-3,1.649999991E-3,-2.928750031E-2
4.282783543E0,-1.099999994E-3,-5.499999970E-4,-2.928750031E-2
4.285283852E0,-1.099999994E-3,5.499999970E-4,-3.038750030E-2
4.287784235E0,-1.374999993E-4,-5.499999970E-4,-3.038750030E-2
4.290284773E0,-2.199999988E-3,-5.499999970E-4,-3.038750030E-2
4.292785160E0,-2.199999988E-3,-5.499999970E-4,-3.038750030E-2
4.295285687E0,-1.374999993E-4,5.499999970E-4,-3.355000168E-2
4.297786073E0,-3.299999982E-3,5.499999970E-4,-3.244999796E-2
4.300286610E0,-2.199999988E-3,5.499999970E-4,-3.355000168E-2
4.302786996E0,-2.199999988E-3,5.499999970E-4,-3.244999796E-2
4.305287533E0,-2.199999988E-3,-5.499999970E-4,-3.355000168E-2
4.307787924E0,-2.199999988E-3,5.499999970E-4,-3.355000168E-2
4.310288461E0,-3.299999982E-3,5.499999970E-4,-3.671250120E-2
4.312788847E0,-2.199999988E-3,-5.499999970E-4,-3.561250120E-2
4.315289384E0,-2.199999988E-3,-5.499999970E-4,-3.877500072E-2
4.317789770E0,-1.099999994E-3,-1.649999991E-3,-3.877500072E-2
4.320290078E0,-3.299999982E-3,-5.499999970E-4,-3.781250119E-2
4.322790615E0,-2.199999988E-3,5.499999970E-4,-3.877500072E-2
4.325291001E0,-2.199999988E-3,-5.499999970E-4,-3.877500072E-2
4.327791533E0,-3.299999982E-3,1.649999991E-3,-3.877500072E-2
4.330291919E0,-3.299999982E-3,-1.649999991E-3,-3.877500072E-2
4.332792456E0,-1.099999994E-3,5.499999970E-4,-3.781250119E-2
4.335292842E0,-2.199999988E-3,5.499999970E-4,-3.671250120E-2
4.337793355E0,-2.199999988E-3,-5.499999970E-4,-3.561250120E-2
4.340293742E0,-1.099999994E-3,-5.499999970E-4,-3.451250121E-2
4.342794278E0,-3.299999982E-3,5.499999970E-4,-3.355000168E-2
4.345294665E0,-1.099999994E-3,-5.499999970E-4,-3.451250121E-2
4.347795201E0,-2.199999988E-3,-5.499999970E-4,-3.451250121E-2
4.350295588E0,-1.099999994E-3,-5.499999970E-4,-3.038750030E-2
4.352796124E0,-2.199999988E-3,-1.649999991E-3,-3.038750030E-2
4.355296511E0,-2.199999988E-3,1.649999991E-3,-2.928750031E-2
4.357796819E0,-2.199999988E-3,5.499999970E-4,-2.818750031E-2
4.360297346E0,-2.199999988E-3,-5.499999970E-4,-2.928750031E-2
4.362797733E0,-1.099999994E-3,1.649999991E-3,-2.612499893E-2
4.365298269E0,-1.374999993E-4,5.499999970E-4,-2.392499894E-2
4.367798656E0,-1.099999994E-3,5.499999970E-4,-2.502499893E-2
4.370299177E0,-1.099999994E-3,-1.649999991E-3,-2.186249942E-2
4.372799564E0,-1.374999993E-4,5.499999970E-4,-1.966249943E-2
4.375300100E0,-1.374999993E-4,-5.499999970E-4,-1.966249943E-2
4.377800487E0,-1.099999994E-3,5.499999970E-4,-1.539999992E-2
4.380301023E0,-1.099999994E-3,5.499999970E-4,-1.429999992E-2
4.382801415E0,-1.374999993E-4,5.499999970E-4,-1.223750040E-2
4.385301951E0,-1.374999993E-4,-5.499999970E-4,-1.003750041E-2
4.387802338E0,9.624999948E-4,5.499999970E-4,-6.874999963E-3
4.390302646E0,-1.099999994E-3,-5.499999970E-4,-2.612499986E-3
4.392803196E0,9.624999948E-4,-5.499999970E-4,-1.649999991E-3
4.395303583E0,2.062499989E-3,5.499999970E-4,5.499999970E-4
4.397804119E0,9.624999948E-4,5.499999970E-4,3.712499980E-3
4.400304506E0,9.624999948E-4,-5.499999970E-4,9.074999951E-3
4.402805042E0,-1.374999993E-4,5.499999970E-4,9.074999951E-3
4.405305429E0,2.062499989E-3,5.499999970E-4,1.223750040E-2
4.407805965E0,2.062499989E-3,-5.499999970E-4,1.333750039E-2
4.410306352E0,-1.374999993E-4,-5.499999970E-4,1.649999991E-2
4.412806885E0,3.162499983E-3,-5.499999970E-4,1.869999990E-2
4.415307271E0,9.624999948E-4,-5.499999970E-4,2.186249942E-2
4.417807808E0,3.162499983E-3,-5.499999970E-4,2.282499894E-2
4.420308194E0,9.624999948E-4,5.499999970E-4,2.502499893E-2
4.422808697E0,2.062499989E-3,5.499999970E-4,2.708750032E-2
4.425309083E0,2.062499989E-3,-5.499999970E-4,2.928750031E-2
4.427809620E0,3.162499983E-3,5.499999970E-4,3.244999796E-2
4.430309930E0,2.062499989E-3,-1.649999991E-3,3.355000168E-2
4.432810312E0,3.162499983E-3,-5.499999970E-4,3.671250120E-2
4.435310865E0,4.124999978E-3,-5.499999970E-4,3.987500072E-2
4.437811251E0,2.062499989E-3,-1.649999991E-3,3.891250119E-2
4.440311788E0,3.162499983E-3,5.499999970E-4,4.317500070E-2
4.442812174E0,3.162499983E-3,-1.649999991E-3,4.413750023E-2
4.445312740E0,4.124999978E-3,5.499999970E-4,4.523750022E-2
4.447813126E0,4.124999978E-3,-1.649999991E-3,4.743750021E-2
4.450313663E0,4.124999978E-3,-1.649999991E-3,4.839999974E-2
4.452813973E0,3.162499983E-3,-5.499999970E-4,5.059999973E-2
4.455314369E0,4.124999978E-3,5.499999970E-4,5.059999973E-2
4.457814908E0,3.162499983E-3,-5.499999970E-4,5.156249925E-2
4.460315294E0,4.124999978E-3,-5.499999970E-4,5.266249925E-2
4.462815831E0,5.224999972E-3,5.499999970E-4,5.486249924E-2
4.465316193E0,4.124999978E-3,5.499999970E-4,5.486249924E-2
4.467816730E0,5.224999972E-3,5.499999970E-4,5.582499877E-2
4.470317116E0,5.224999972E-3,5.499999970E-4,5.692499876E-2
4.472817653E0,4.124999978E-3,-1.649999991E-3,5.802499875E-2
4.475318040E0,4.124999978E-3,1.649999991E-3,5.802499875E-2
4.477818552E0,3.162499983E-3,2.612499986E-3,5.912499875E-2
4.480318939E0,4.124999978E-3,5.499999970E-4,6.008749828E-2
4.482819475E0,5.224999972E-3,1.649999991E-3,5.912499875E-2
4.485319862E0,3.162499983E-3,-1.649999991E-3,6.228749827E-2
4.487820408E0,4.124999978E-3,5.499999970E-4,6.228749827E-2
4.490320795E0,5.224999972E-3,5.499999970E-4,6.435000151E-2
4.492821331E0,4.124999978E-3,5.499999970E-4,6.338749826E-2
4.495321718E0,6.324999966E-3,5.499999970E-4,6.544999778E-2
4.497822230E0,4.124999978E-3,-1.649999991E-3,6.544999778E-2
4.500322540E0,6.324999966E-3,1.649999991E-3,6.338749826E-2
4.502822923E0,5.224999972E-3,-5.499999970E-4,6.544999778E-2
4.505323461E0,5.224999972E-3,5.499999970E-4,6.435000151E-2
4.507823877E0,4.124999978E-3,-1.649999991E-3,6.228749827E-2
4.510324413E0,5.224999972E-3,5.499999970E-4,6.228749827E-2
4.512824800E0,5.224999972E-3,5.499999970E-4,6.118749827E-2
4.515325336E0,4.124999978E-3,5.499999970E-4,5.912499875E-2
4.517825727E0,3.162499983E-3,-5.499999970E-4,5.912499875E-2
4.520326263E0,4.124999978E-3,5.499999970E-4,5.582499877E-2
4.522826573E0,5.224999972E-3,5.499999970E-4,5.486249924E-2
4.525326956E0,3.162499983E-3,-5.499999970E-4,5.266249925E-2
4.527827499E0,5.224999972E-3,5.499999970E-4,5.059999973E-2
4.530327886E0,5.224999972E-3,5.499999970E-4,4.743750021E-2
4.532828422E0,4.124999978E-3,-5.499999970E-4,4.633750021E-2
4.535328809E0,2.062499989E-3,1.649999991E-3,4.413750023E-2
4.537829345E0,4.124999978E-3,-5.499999970E-4,3.891250119E-2
4.540329756E0,3.162499983E-3,5.499999970E-4,3.561250120E-2
4.542830292E0,3.162499983E-3,-5.499999970E-4,3.244999796E-2
4.545330679E0,9.624999948E-4,-5.499999970E-4,2.928750031E-2
4.547831216E0,2.062499989E-3,-5.499999970E-4,2.502499893E-2
4.550331578E0,2.062499989E-3,-5.499999970E-4,2.282499894E-2
4.552832115E0,2.062499989E-3,5.499999970E-4,1.759999990E-2
4.555332501E0,9.624999948E-4,-5.499999970E-4,1.223750040E-2
4.557833038E0,9.624999948E-4,5.499999970E-4,7.974999957E-3
4.560333400E0,9.624999948E-4,5.499999970E-4,1.649999991E-3
4.562833937E0,-1.374999993E-4,2.612499986E-3,-1.649999991E-3
4.565334247E0,-1.374999993E-4,-5.499999970E-4,-6.874999963E-3
4.567834860E0,-1.099999994E-3,5.499999970E-4,-1.223750040E-2
4.570335170E0,-1.374999993E-4,-1.649999991E-3,-2.076249942E-2
4.572835554E0,-1.099999994E-3,-5.499999970E-4,-2.392499894E-2
4.575336091E0,-1.099999994E-3,5.499999970E-4,-3.038750030E-2
4.577836477E0,-1.099999994E-3,5.499999970E-4,-3.561250120E-2
4.580337025E0,-2.199999988E-3,5.499999970E-4,-3.987500072E-2
4.582837411E0,-2.199999988E-3,-2.612499986E-3,-4.729999974E-2
4.585337948E0,-3.299999982E-3,1.649999991E-3,-5.156249925E-2
4.587838335E0,-4.399999976E-3,-5.499999970E-4,-5.898749828E-2
4.590338871E0,-4.399999976E-3,5.499999970E-4,-6.228749827E-2
4.592839190E0,-2.199999988E-3,-1.649999991E-3,-6.861250103E-2
4.595339572E0,-3.299999982E-3,1.649999991E-3,-7.507500052E-2
4.597840111E0,-5.362499971E-3,5.499999970E-4,-7.823749632E-2
4.600340497E0,-5.362499971E-3,5.499999970E-4,-8.346249908E-2
4.602841029E0,-6.462499965E-3,5.499999970E-4,-8.566249907E-2
4.605341415E0,-7.562499959E-3,-5.499999970E-4,-9.102500230E-2
4.607841952E0,-7.562499959E-3,5.499999970E-4,-9.418749809E-2
4.610342339E0,-6.462499965E-3,-5.499999970E-4,-9.844999760E-2
4.612842875E0,-6.462499965E-3,-5.499999970E-4,-9.955000132E-2
4.615343248E0,-8.662499487E-3,-5.499999970E-4,-1.016125008E-1
4.617843784E0,-8.662499487E-3,1.649999991E-3,-1.038125008E-1
4.620344171E0,-6.462499965E-3,-5.499999970E-4,-1.058750004E-1
4.622844707E0,-5.362499971E-3,-1.649999991E-3,-1.038125008E-1
4.625345099E0,-6.462499965E-3,5.499999970E-4,-1.047749966E-1
4.627845635E0,-6.462499965E-3,-5.499999970E-4,-1.038125008E-1
4.630346022E0,-5.362499971E-3,5.499999970E-4,-1.038125008E-1
4.632846330E0,-6.462499965E-3,-5.499999970E-4,-1.005124971E-1
4.635346952E0,-7.562499959E-3,-5.499999970E-4,-9.735000134E-2
4.637847262E0,-6.462499965E-3,-5.499999970E-4,-9.624999762E-2
4.640347798E0,-7.562499959E-3,5.499999970E-4,-9.418749809E-2
4.642848185E0,-5.362499971E-3,5.499999970E-4,-9.102500230E-2
4.645348721E0,-6.462499965E-3,-5.499999970E-4,-8.456250280E-2
4.647849108E0,-5.362499971E-3,-1.649999991E-3,-8.249999583E-2
4.650349644E0,-5.362499971E-3,5.499999970E-4,-7.713750005E-2
4.652850031E0,-4.399999976E-3,-5.499999970E-4,-7.287500054E-2
4.655350543E0,-5.362499971E-3,-5.499999970E-4,-6.655000150E-2
4.657850930E0,-3.299999982E-3,1.649999991E-3,-6.228749827E-2
4.660351467E0,-5.362499971E-3,5.499999970E-4,-5.802499875E-2
4.662851853E0,-3.299999982E-3,5.499999970E-4,-5.156249925E-2
4.665352171E0,-2.199999988E-3,5.499999970E-4,-4.729999974E-2
4.667852707E0,-2.199999988E-3,5.499999970E-4,-4.097500071E-2
4.670353094E0,-2.199999988E-3,-5.499999970E-4,-3.561250120E-2
4.672853630E0,-1.374999993E-4,-5.499999970E-4,-3.038750030E-2
4.675354017E0,-2.199999988E-3,-5.499999970E-4,-2.502499893E-2
4.677854554E0,-1.099999994E-3,-5.499999970E-4,-2.076249942E-2
4.680354940E0,-1.374999993E-4,-1.649999991E-3,-1.539999992E-2
4.682855477E0,9.624999948E-4,1.649999991E-3,-1.113750041E-2
4.685355863E0,-1.374999993E-4,5.499999970E-4,-7.974999957E-3
4.687856390E0,-1.374999993E-4,-1.649999991E-3,-2.612499986E-3
4.690356776E0,9.624999948E-4,5.499999970E-4,5.499999970E-4
4.692857313E0,9.624999948E-4,-5.499999970E-4,3.712499980E-3
4.695357699E0,2.062499989E-3,5.499999970E-4,1.017499994E-2
4.697858002E0,9.624999948E-4,5.499999970E-4,1.223750040E-2
4.700358615E0,2.062499989E-3,-1.649999991E-3,1.539999992E-2
4.702858925E0,9.624999948E-4,-5.499999970E-4,1.759999990E-2
4.705359462E0,3.162499983E-3,5.499999970E-4,2.282499894E-2
4.707859853E0,9.624999948E-4,1.649999991E-3,2.612499893E-2
4.710360390E0,2.062499989E-3,-5.499999970E-4,2.928750031E-2
4.712860776E0,2.062499989E-3,-5.499999970E-4,2.928750031E-2
4.715361313E0,2.062499989E-3,1.649999991E-3,3.464999795E-2
4.717861714E0,4.124999978E-3,5.499999970E-4,3.987500072E-2
4.720362251E0,3.162499983E-3,1.649999991E-3,4.207500070E-2
4.722862638E0,3.162499983E-3,-5.499999970E-4,4.413750023E-2
4.725363174E0,5.224999972E-3,5.499999970E-4,4.949999973E-2
4.727863561E0,4.124999978E-3,5.499999970E-4,5.266249925E-2
4.730364121E0,4.124999978E-3,5.499999970E-4,5.376249924E-2
4.732864508E0,6.324999966E-3,5.499999970E-4,5.692499876E-2
4.735364815E0,4.124999978E-3,5.499999970E-4,5.802499875E-2
4.737865352E0,5.224999972E-3,1.649999991E-3,6.228749827E-2
4.740365723E0,4.124999978E-3,5.499999970E-4,6.338749826E-2
4.742866260E0,4.124999978E-3,-5.499999970E-4,6.338749826E-2
4.745366647E0,4.124999978E-3,-5.499999970E-4,6.435000151E-2
4.747867183E0,5.224999972E-3,5.499999970E-4,6.861250103E-2
4.750367560E0,4.124999978E-3,-5.499999970E-4,7.081250101E-2
4.752868096E0,4.124999978E-3,1.649999991E-3,7.081250101E-2
4.755368483E0,5.224999972E-3,-5.499999970E-4,6.971249729E-2
4.757869019E0,5.224999972E-3,-1.649999991E-3,7.191249728E-2
4.760369401E0,5.224999972E-3,-1.649999991E-3,7.191249728E-2
4.762869937E0,5.224999972E-3,5.499999970E-4,7.191249728E-2
4.765370247E0,5.224999972E-3,-5.499999970E-4,7.287500054E-2
4.767870860E0,6.324999966E-3,5.499999970E-4,7.287500054E-2
4.770371170E0,5.224999972E-3,-5.499999970E-4,7.397499681E-2
4.772871778E0,4.124999978E-3,-5.499999970E-4,7.287500054E-2
4.775372088E0,6.324999966E-3,5.499999970E-4,7.191249728E-2
4.777872702E0,5.224999972E-3,-5.499999970E-4,7.287500054E-2
4.780373011E0,5.224999972E-3,1.649999991E-3,6.861250103E-2
4.782873396E0,5.224999972E-3,5.499999970E-4,6.861250103E-2
4.785373932E0,6.324999966E-3,-5.499999970E-4,6.544999778E-2
4.787874319E0,3.162499983E-3,5.499999970E-4,6.338749826E-2
4.790374855E0,4.124999978E-3,-1.649999991E-3,6.118749827E-2
4.792875242E0,4.124999978E-3,5.499999970E-4,6.008749828E-2
4.795375788E0,4.124999978E-3,-1.649999991E-3,5.802499875E-2
4.797876174E0,4.124999978E-3,5.499999970E-4,5.486249924E-2
4.800376711E0,4.124999978E-3,5.499999970E-4,5.376249924E-2
4.802877097E0,3.162499983E-3,5.499999970E-4,5.059999973E-2
4.805377620E0,4.124999978E-3,-5.499999970E-4,5.059999973E-2
4.807877929E0,3.162499983E-3,5.499999970E-4,4.633750021E-2
4.810378312E0,3.162499983E-3,-1.649999991E-3,4.633750021E-2
4.812878851E0,3.162499983E-3,-5.499999970E-4,4.207500070E-2
4.815379237E0,2.062499989E-3,5.499999970E-4,3.987500072E-2
4.817879774E0,2.062499989E-3,5.499999970E-4,3.891250119E-2
4.820380160E0,4.124999978E-3,-5.499999970E-4,3.561250120E-2
4.822880697E0,3.162499983E-3,5.499999970E-4,3.244999796E-2
4.825381083E0,3.162499983E-3,1.649999991E-3,3.135000169E-2
4.827881634E0,2.062499989E-3,-1.649999991E-3,3.038750030E-2
4.830382020E0,3.162499983E-3,5.499999970E-4,2.612499893E-2
4.832882328E0,9.624999948E-4,5.499999970E-4,2.282499894E-2
4.835382941E0,9.624999948E-4,-5.499999970E-4,1.966249943E-2
4.837883251E0,2.062499989E-3,1.649999991E-3,1.759999990E-2
4.840383865E0,9.624999948E-4,5.499999970E-4,1.539999992E-2
4.842884174E0,9.624999948E-4,5.499999970E-4,1.333750039E-2
4.845384788E0,-1.374999993E-4,5.499999970E-4,1.113750041E-2
4.847885083E0,9.624999948E-4,5.499999970E-4,7.974999957E-3
4.850385697E0,9.624999948E-4,-5.499999970E-4,4.812499974E-3
4.852886006E0,9.624999948E-4,-5.499999970E-4,2.612499986E-3
4.855386543E0,9.624999948E-4,-5.499999970E-4,-5.499999970E-4
4.857886930E0,-1.374999993E-4,-5.499999970E-4,-4.812499974E-3
4.860387471E0,-1.374999993E-4,5.499999970E-4,-5.774999969E-3
4.862887858E0,-1.374999993E-4,5.499999970E-4,-7.974999957E-3
4.865388394E0,-1.374999993E-4,5.499999970E-4,-1.223750040E-2
4.867888781E0,-1.374999993E-4,1.649999991E-3,-1.539999992E-2
4.870389326E0,-1.099999994E-3,-5.499999970E-4,-1.856249943E-2
4.872889713E0,-1.099999994E-3,5.499999970E-4,-2.186249942E-2
4.875390021E0,-2.199999988E-3,-1.649999991E-3,-2.612499893E-2
4.877890634E0,-1.374999993E-4,-5.499999970E-4,-2.818750031E-2
4.880390915E0,-2.199999988E-3,-5.499999970E-4,-3.135000169E-2
4.882891451E0,-3.299999982E-3,1.649999991E-3,-3.451250121E-2
4.885391838E0,-3.299999982E-3,-5.499999970E-4,-3.781250119E-2
4.887892374E0,-3.299999982E-3,5.499999970E-4,-3.987500072E-2
4.890392771E0,-2.199999988E-3,-1.649999991E-3,-4.207500070E-2
4.892893307E0,-4.399999976E-3,1.649999991E-3,-4.523750022E-2
4.895393694E0,-2.199999988E-3,5.499999970E-4,-4.633750021E-2
4.897894230E0,-3.299999982E-3,-5.499999970E-4,-4.949999973E-2
4.900394617E0,-2.199999988E-3,-5.499999970E-4,-5.156249925E-2
4.902895158E0,-2.199999988E-3,-5.499999970E-4,-5.376249924E-2
4.905395468E0,-4.399999976E-3,-5.499999970E-4,-5.582499877E-2
4.907896082E0,-3.299999982E-3,5.499999970E-4,-5.486249924E-2
4.910396391E0,-3.299999982E-3,-5.499999970E-4,-5.692499876E-2
4.912897029E0,-2.199999988E-3,-5.499999970E-4,-5.486249924E-2
4.915397338E0,-3.299999982E-3,-5.499999970E-4,-5.802499875E-2
4.917897723E0,-4.399999976E-3,-1.649999991E-3,-5.692499876E-2
4.920398259E0,-2.199999988E-3,5.499999970E-4,-5.802499875E-2
4.922898646E0,-4.399999976E-3,5.499999970E-4,-5.802499875E-2
4.925399182E0,-3.299999982E-3,5.499999970E-4,-5.802499875E-2
4.927899569E0,-3.299999982E-3,5.499999970E-4,-5.692499876E-2
4.930400106E0,-4.399999976E-3,-5.499999970E-4,-5.802499875E-2
4.932900473E0,-3.299999982E-3,-1.649999991E-3,-5.486249924E-2
4.935401010E0,-3.299999982E-3,-5.499999970E-4,-5.376249924E-2
4.937901319E0,-3.299999982E-3,5.499999970E-4,-5.266249925E-2
4.940401933E0,-2.199999988E-3,5.499999970E-4,-5.156249925E-2
4.942902242E0,-1.099999994E-3,5.499999970E-4,-4.839999974E-2
4.945402846E0,-3.299999982E-3,-5.499999970E-4,-4.729999974E-2
4.947903156E0,-2.199999988E-3,-5.499999970E-4,-4.633750021E-2
4.950403769E0,-2.199999988E-3,-1.649999991E-3,-4.523750022E-2
4.952904079E0,-2.199999988E-3,-5.499999970E-4,-4.207500070E-2
4.955404477E0,-3.299999982E-3,5.499999970E-4,-3.987500072E-2
4.957905014E0,-2.199999988E-3,-5.499999970E-4,-3.781250119E-2
4.960405400E0,-4.399999976E-3,5.499999970E-4,-3.671250120E-2
4.962905937E0,-1.099999994E-3,5.499999970E-4,-3.561250120E-2
4.965406323E0,-2.199999988E-3,-5.499999970E-4,-3.135000169E-2
4.967906851E0,-1.099999994E-3,5.499999970E-4,-3.135000169E-2
4.970407238E0,-1.099999994E-3,5.499999970E-4,-2.928750031E-2
4.972907774E0,-1.099999994E-3,-5.499999970E-4,-2.818750031E-2
4.975408161E0,-1.099999994E-3,5.499999970E-4,-2.612499893E-2
4.977908487E0,-1.374999993E-4,-5.499999970E-4,-2.282499894E-2
4.980409101E0,-2.199999988E-3,5.499999970E-4,-2.282499894E-2
4.982909410E0,-1.099999994E-3,5.499999970E-4,-2.076249942E-2
4.985409947E0,-1.099999994E-3,-1.649999991E-3,-2.076249942E-2
4.987910347E0,-2.199999988E-3,5.499999970E-4,-1.966249943E-2
4.990410884E0,-1.099999994E-3,1.649999991E-3,-1.649999991E-2
4.992911271E0,-2.199999988E-3,5.499999970E-4,-1.539999992E-2
4.995411807E0,-2.199999988E-3,1.649999991E-3,-1.223750040E-2
4.997912194E0,-2.199999988E-3,-5.499999970E-4,-1.113750041E-2
5.000412745E0,-1.099999994E-3,5.499999970E-4,-1.223750040E-2
5.002913132E0,-1.099999994E-3,-5.499999970E-4,-1.003750041E-2
5.005413668E0,-1.374999993E-4,-5.499999970E-4,-5.774999969E-3
5.007914055E0,9.624999948E-4,-5.499999970E-4,-3.712499980E-3
5.010414382E0,9.624999948E-4,5.499999970E-4,-3.712499980E-3
5.012914995E0,2.062499989E-3,-5.499999970E-4,5.499999970E-4
5.015415305E0,-1.374999993E-4,5.499999970E-4,2.612499986E-3
5.017915918E0,9.624999948E-4,5.499999970E-4,3.712499980E-3
5.020416242E0,2.062499989E-3,5.499999970E-4,6.874999963E-3
5.022916855E0,3.162499983E-3,5.499999970E-4,9.074999951E-3
5.025417165E0,2.062499989E-3,5.499999970E-4,1.017499994E-2
5.027917701E0,9.624999948E-4,5.499999970E-4,1.443750039E-2
5.030418103E0,2.062499989E-3,1.649999991E-3,1.649999991E-2
5.032918639E0,2.062499989E-3,5.499999970E-4,1.759999990E-2
5.035419026E0,2.062499989E-3,1.649999991E-3,2.186249942E-2
5.037919562E0,2.062499989E-3,5.499999970E-4,2.282499894E-2
5.040419949E0,2.062499989E-3,5.499999970E-4,2.502499893E-2
5.042920486E0,4.124999978E-3,-5.499999970E-4,2.928750031E-2
5.045420872E0,9.624999948E-4,-5.499999970E-4,3.244999796E-2
5.047921409E0,2.062499989E-3,-1.649999991E-3,3.355000168E-2
5.050421718E0,4.124999978E-3,-5.499999970E-4,3.561250120E-2
5.052922129E0,4.124999978E-3,-5.499999970E-4,3.671250120E-2
5.055422667E0,5.224999972E-3,5.499999970E-4,3.987500072E-2
5.057923054E0,6.324999966E-3,-1.649999991E-3,4.097500071E-2
5.060423590E0,3.162499983E-3,5.499999970E-4,4.207500070E-2
